// Start Time: Unknown
// Update Rate: 100.0Hz
// Filter Profile: human (46.1)
// Firmware Version: 4.4.0
PacketCounter	Acc_X	Acc_Y	Acc_Z	FreeAcc_X	FreeAcc_Y	FreeAcc_Z	OriInc_q0	OriInc_q1	OriInc_q2	OriInc_q3	Roll	Pitch	Yaw
14939	9.555642	-0.204361	2.345616	0.000000	0.000000	0.028754	1.000000	0.000035	0.000010	0.000026	-4.975361	-76.158820	-2.590969
14940	9.559234	-0.144656	2.387771	0.000000	0.000000	0.041313	1.000000	0.000029	0.000016	0.000017	-3.464953	-75.951512	-4.529227
14941	9.539244	-0.194322	2.361196	-0.001800	-0.020361	0.016340	1.000000	0.000031	0.000020	0.000011	-4.210909	-76.054540	-3.563702
14942	9.582337	-0.193615	2.328023	0.040826	-0.024643	0.050176	1.000000	0.000021	0.000005	0.000015	-4.215298	-76.053874	-3.556645
14943	9.560518	-0.151310	2.354529	0.015921	0.021327	0.034622	1.000000	0.000030	0.000004	0.000019	-4.220497	-76.052820	-3.547636
14944	9.566014	-0.183728	2.343291	0.024002	-0.012087	0.037828	1.000000	0.000031	0.000018	0.000030	-4.229944	-76.050550	-3.534219
14945	9.551152	-0.179653	2.324665	0.039241	-0.010221	0.018854	1.000000	0.000037	0.000018	0.000002	-4.225810	-76.048589	-3.534160
14946	9.540388	-0.201505	2.328484	0.030419	-0.031070	0.009713	1.000000	0.000021	0.000014	0.000032	-4.237460	-76.046724	-3.519720
14947	9.551030	-0.180103	2.325130	0.039201	-0.010205	0.018854	1.000000	0.000035	0.000001	0.000010	-4.238372	-76.046755	-3.514612
14948	9.561675	-0.158559	2.321786	0.048023	0.010644	0.027995	1.000000	0.000037	0.000015	0.000021	-4.243075	-76.044879	-3.505411
14949	9.581927	-0.195134	2.329581	0.040765	-0.024622	0.050177	1.000000	0.000026	0.000011	0.000022	-4.250230	-76.043935	-3.494944
14950	9.565610	-0.184884	2.344846	0.023863	-0.012056	0.037829	1.000000	0.000031	0.000020	0.000011	-4.250865	-76.041517	-3.490647
14951	9.550717	-0.180889	2.326357	0.038976	-0.010147	0.018855	1.000000	0.000030	0.000030	0.000027	-4.259589	-76.038704	-3.478165
14952	9.592335	-0.174070	2.327179	0.049450	-0.003730	0.059318	1.000000	0.000035	0.000001	0.000010	-4.260163	-76.038500	-3.473386
14953	9.550584	-0.181115	2.326885	0.038765	-0.010092	0.018856	1.000000	0.000023	0.000021	0.000007	-4.260863	-76.037264	-3.470061
14954	9.581474	-0.196020	2.331371	0.040416	-0.024524	0.050178	1.000000	0.000028	0.000025	0.000033	-4.271883	-76.034119	-3.455430
14955	9.566602	-0.191992	2.312811	0.055378	-0.022569	0.031207	1.000000	0.000037	0.000018	0.000002	-4.269492	-76.033801	-3.453681
14956	9.577232	-0.170311	2.309555	0.064199	-0.001720	0.040348	1.000000	0.000032	0.000008	0.000013	-4.271660	-76.032726	-3.447665
14957	9.560933	-0.160014	2.324741	0.046881	0.010959	0.028000	1.000000	0.000029	0.000016	0.000016	-4.277558	-76.033241	-3.438341
14958	9.554246	-0.207689	2.351004	0.013989	-0.032606	0.028690	1.000000	0.000032	0.000008	0.000013	-4.279725	-76.032166	-3.432326
14959	9.575563	-0.164425	2.344259	0.031149	0.009230	0.046974	1.000000	0.000023	0.000021	0.000007	-4.282036	-76.032515	-3.427444
14960	9.562196	-0.166485	2.291679	0.078554	0.000397	0.021382	1.000000	0.000043	0.000012	0.000011	-4.281994	-76.031033	-3.422459
14961	9.580972	-0.196617	2.333382	0.038619	-0.024065	0.050187	1.000000	0.000032	0.000008	0.000013	-4.286156	-76.033538	-3.414491
14962	9.576815	-0.170694	2.311256	0.062692	-0.001350	0.040358	1.000000	0.000027	0.000030	-0.000005	-4.279581	-76.030104	-3.418069
14963	9.576706	-0.170673	2.311708	0.061963	-0.001199	0.040362	1.000000	0.000029	0.000016	0.000016	-4.285919	-76.032442	-3.408304
14964	9.592870	-0.181328	2.297078	0.078862	-0.013764	0.052716	1.000000	0.000037	0.000015	0.000021	-4.290604	-76.030562	-3.399121
14965	9.560290	-0.160483	2.327348	0.044164	0.011532	0.028012	1.000000	0.000025	0.000026	0.000001	-4.289882	-76.032891	-3.397051
14966	9.576450	-0.170938	2.312752	0.061062	-0.001032	0.040368	1.000000	0.000032	0.000008	0.000013	-4.292045	-76.031814	-3.391039
14967	9.580405	-0.197012	2.335677	0.035974	-0.023610	0.050198	1.000000	0.000049	0.000032	0.000029	-4.300489	-76.033773	-3.376803
14968	9.586936	-0.149635	2.310086	0.068867	0.019954	0.049517	1.000000	0.000026	0.000014	0.000003	-4.298594	-76.032156	-3.375689
14969	9.559893	-0.160732	2.328962	0.041996	0.011808	0.028022	1.000000	0.000044	0.000029	0.000003	-4.295582	-76.035633	-3.373798
14970	9.576018	-0.171127	2.314524	0.058891	-0.000756	0.040381	1.000000	0.000023	0.000021	0.000007	-4.295281	-76.033146	-3.371449
14971	9.563720	-0.186676	2.352403	0.016694	-0.010796	0.037845	1.000000	0.000033	0.000022	0.000024	-4.302496	-76.037547	-3.360202
14972	9.575791	-0.171524	2.315434	0.057665	-0.000645	0.040388	1.000000	0.000036	0.000027	0.000018	-4.305645	-76.034326	-3.352748
14973	9.559441	-0.161220	2.330783	0.039502	0.012037	0.028032	1.000000	0.000020	0.000017	0.000012	-4.309540	-76.039731	-3.346608
14974	9.574111	-0.165574	2.350100	0.024236	0.010174	0.046993	1.000000	0.000029	0.000016	0.000016	-4.313317	-76.037785	-3.339354
14975	9.559264	-0.161603	2.331484	0.038236	0.012109	0.028036	1.000000	0.000025	0.000023	0.000020	-4.318630	-76.042346	-3.331145
14976	9.573916	-0.166013	2.350864	0.022967	0.010247	0.046996	1.000000	0.000029	0.000016	0.000016	-4.322416	-76.040400	-3.323887
14977	9.586023	-0.150859	2.313792	0.062565	0.020456	0.049558	1.000000	0.000025	0.000023	0.000020	-4.327248	-76.045570	-3.315223
14978	9.548247	-0.183955	2.336235	0.028053	-0.008680	0.018894	1.000000	0.000025	0.000023	0.000020	-4.332596	-76.042758	-3.306746
14979	9.573584	-0.166568	2.352177	0.020208	0.010301	0.047002	1.000000	0.000025	0.000026	0.000001	-4.327138	-76.047833	-3.310149
14980	9.558728	-0.162357	2.333627	0.035480	0.012166	0.028047	1.000000	0.000031	0.000020	0.000011	-4.327786	-76.045423	-3.305858
14981	9.580420	-0.205058	2.307703	0.059025	-0.033828	0.043649	1.000000	0.000020	0.000017	0.000012	-4.328244	-76.051623	-3.302649
14982	9.578837	-0.198953	2.341934	0.026863	-0.023127	0.050228	1.000000	0.000037	0.000015	0.000021	-4.332959	-76.049747	-3.293451
14983	9.574710	-0.173356	2.319765	0.049527	-0.000337	0.040433	1.000000	0.000025	0.000023	0.000020	-4.338164	-76.055209	-3.284996
14984	9.562368	-0.188930	2.357712	0.008555	-0.010487	0.037856	1.000000	0.000036	0.000027	0.000018	-4.341320	-76.051998	-3.277543
14985	9.563786	-0.195364	2.324149	0.039446	-0.021110	0.031287	1.000000	0.000032	0.000008	0.000013	-4.343609	-76.058317	-3.271614
14986	9.558180	-0.163297	2.335806	0.031370	0.012305	0.028061	1.000000	0.000023	0.000021	0.000007	-4.343318	-76.055837	-3.269267
14987	9.558100	-0.163479	2.336118	0.030247	0.012391	0.028064	1.000000	0.000035	0.000010	0.000026	-4.351684	-76.060970	-3.256189
14988	9.563563	-0.195874	2.325020	0.038322	-0.021022	0.031291	1.000000	0.000029	0.000016	0.000016	-4.355461	-76.059016	-3.248933
14989	9.557971	-0.163885	2.336620	0.028908	0.012492	0.028068	1.000000	0.000032	0.000008	0.000013	-4.358168	-76.065749	-3.241024
14990	9.601140	-0.163318	2.303439	0.071469	0.008216	0.061988	1.000000	0.000032	0.000008	0.000013	-4.360318	-76.064665	-3.235015
14991	9.563438	-0.196235	2.325504	0.035647	-0.020870	0.031302	1.000000	0.000025	-0.000003	0.000012	-4.362572	-76.072679	-3.230029
14992	9.594386	-0.211053	2.329750	0.037231	-0.035298	0.062630	1.000000	0.000029	0.000016	0.000016	-4.366315	-76.070752	-3.222789
14993	9.563304	-0.196605	2.326024	0.034197	-0.020740	0.031307	1.000000	0.000025	0.000023	0.000020	-4.372836	-76.076401	-3.212326
14994	9.573961	-0.174942	2.322734	0.042989	0.000109	0.040463	1.000000	0.000043	0.000003	-0.000005	-4.365490	-76.076170	-3.214742
14995	9.590155	-0.185481	2.308054	0.058718	-0.012306	0.052859	1.000000	0.000023	0.000019	0.000026	-4.376071	-76.080503	-3.202632
14996	9.573820	-0.175270	2.323290	0.041837	0.000256	0.040468	1.000000	0.000029	0.000016	0.000016	-4.379827	-76.078593	-3.195387
14997	9.573741	-0.175453	2.323603	0.040591	0.000409	0.040474	1.000000	0.000029	0.000016	0.000016	-4.385645	-76.083918	-3.186848
14998	9.604634	-0.190267	2.328074	0.042160	-0.014015	0.071803	1.000000	0.000039	0.000020	0.000015	-4.387207	-76.081593	-3.180628
14999	9.573585	-0.175715	2.324227	0.039391	0.000563	0.040479	1.000000	0.000040	0.000008	0.000017	-4.392443	-76.087554	-3.170775
15000	9.569490	-0.150021	2.302009	0.063483	0.023277	0.030702	1.000000	0.000019	0.000029	0.000010	-4.393721	-76.084218	-3.167214
15001	9.573408	-0.175976	2.324935	0.038037	0.000682	0.040484	1.000000	0.000049	0.000007	0.000021	-4.398857	-76.091124	-3.156913
15002	9.589580	-0.186702	2.310345	0.054903	-0.011880	0.052881	1.000000	0.000025	0.000023	0.000020	-4.404244	-76.088309	-3.148418
15003	9.556958	-0.165890	2.340619	0.019564	0.013369	0.028090	1.000000	0.000027	0.000028	0.000014	-4.407305	-76.094384	-3.142125
15004	9.587836	-0.180625	2.345153	0.021122	-0.001053	0.059420	1.000000	0.000034	0.000013	0.000007	-4.406364	-76.092858	-3.139069
15005	9.567508	-0.144347	2.337779	0.027052	0.034338	0.037254	1.000000	0.000039	0.000020	0.000015	-4.409065	-76.098108	-3.133461
15006	9.598379	-0.159203	2.342336	0.028605	0.019917	0.068585	1.000000	0.000025	0.000023	0.000020	-4.414491	-76.095307	-3.124949
15007	9.572800	-0.176889	2.327369	0.033713	0.000956	0.040500	1.000000	0.000036	0.000027	0.000018	-4.416500	-76.100258	-3.118818
15008	9.567139	-0.144994	2.339245	0.025636	0.034373	0.037257	1.000000	0.000022	0.000031	0.000023	-4.423509	-76.096606	-3.109084
15009	9.561835	-0.198881	2.331861	0.024006	-0.019918	0.031339	1.000000	0.000029	0.000007	0.000000	-4.418195	-76.101092	-3.111243
15010	9.572479	-0.177223	2.328664	0.032794	0.000936	0.040503	1.000000	0.000046	0.000031	0.000016	-4.419196	-76.097480	-3.104803
15011	9.572384	-0.177482	2.329033	0.031846	0.000932	0.040506	1.000000	0.000024	0.000007	0.000028	-4.427950	-76.101942	-3.092971
15012	9.556054	-0.167308	2.344204	0.014987	0.013498	0.028098	1.000000	0.000025	0.000023	0.000020	-4.433387	-76.099113	-3.084454
15013	9.572181	-0.178024	2.329826	0.030792	0.000977	0.040509	1.000000	0.000027	0.000028	0.000014	-4.435307	-76.101958	-3.081721
15014	9.546601	-0.195690	2.314866	0.037314	-0.018008	0.012422	1.000000	0.000025	0.000023	0.000020	-4.440794	-76.099134	-3.073184
15015	9.585141	-0.176265	2.383632	-0.017902	0.009872	0.065940	1.000000	0.000037	0.000015	0.000021	-4.445042	-76.104248	-3.065777
15016	9.566374	-0.146387	2.342287	0.021522	0.034447	0.037267	1.000000	0.000026	0.000014	0.000003	-4.443287	-76.102647	-3.064613
15017	9.544779	-0.189747	2.349903	0.003167	-0.007220	0.018935	1.000000	0.000032	0.000034	0.000021	-4.447898	-76.103042	-3.058977
15018	9.571637	-0.178775	2.332003	0.028811	0.001074	0.040515	1.000000	0.000023	0.000021	0.000007	-4.447785	-76.100568	-3.056564
15019	9.586271	-0.183118	2.351349	0.012692	-0.000840	0.059435	1.000000	0.000035	0.000010	0.000026	-4.453259	-76.103748	-3.045776
15020	9.550005	-0.222501	2.339724	0.010431	-0.040673	0.022182	1.000000	0.000037	0.000015	0.000021	-4.458169	-76.101860	-3.036488
15021	9.555157	-0.168911	2.347743	0.010297	0.013656	0.028103	1.000000	0.000029	0.000016	0.000016	-4.462431	-76.104941	-3.030486
15022	9.587586	-0.190176	2.318322	0.044000	-0.011465	0.052936	1.000000	0.000037	0.000015	0.000021	-4.467372	-76.103058	-3.021186
15023	9.556561	-0.175649	2.314386	0.041169	0.003042	0.021609	1.000000	0.000032	0.000008	0.000013	-4.469988	-76.109623	-3.016563
15024	9.575174	-0.205736	2.356282	0.001719	-0.021511	0.050268	1.000000	0.000029	0.000016	0.000016	-4.474014	-76.107726	-3.009203
15025	9.556438	-0.175939	2.314872	0.040231	0.003147	0.021613	1.000000	0.000032	0.000008	0.000013	-4.477391	-76.112094	-3.004049
15026	9.572615	-0.186700	2.300312	0.057066	-0.009406	0.034034	1.000000	0.000042	0.000021	0.000028	-4.484918	-76.109474	-2.991556
15027	9.543988	-0.191441	2.352975	-0.001568	-0.006793	0.018935	1.000000	0.000032	0.000011	-0.000006	-4.481831	-76.113087	-2.996180
15028	9.583228	-0.164981	2.297296	0.065021	0.011641	0.043209	1.000000	0.000034	0.000013	0.000007	-4.481238	-76.111619	-2.992978
15029	9.572418	-0.186733	2.301132	0.054921	-0.009046	0.034046	1.000000	0.000018	0.000012	0.000018	-4.489630	-76.117774	-2.985921
15030	9.591028	-0.216851	2.343006	0.015443	-0.033582	0.062694	1.000000	0.000032	0.000008	0.000013	-4.492258	-76.116829	-2.979707
15031	9.572303	-0.187068	2.301583	0.053786	-0.008937	0.034053	1.000000	0.000029	0.000016	0.000016	-4.496848	-76.121388	-2.972181
15032	9.583010	-0.165553	2.298167	0.062548	0.011931	0.043225	1.000000	0.000035	0.000001	0.000010	-4.497901	-76.121351	-2.967187
15033	9.576187	-0.213020	2.324493	0.028486	-0.031643	0.043792	1.000000	0.000032	0.000008	0.000013	-4.497981	-76.126956	-2.960431
15034	9.569060	-0.174511	2.369941	-0.011779	0.012505	0.047013	1.000000	0.000023	0.000021	0.000007	-4.498019	-76.124672	-2.957971
15035	9.586776	-0.191582	2.321557	0.036701	-0.010759	0.052967	1.000000	0.000037	0.000015	0.000021	-4.502454	-76.125889	-2.948065
15036	9.555748	-0.177005	2.317637	0.035165	0.003678	0.021632	1.000000	0.000042	0.000012	0.000011	-4.502786	-76.124587	-2.942929
15037	9.554098	-0.170675	2.351923	0.002060	0.014614	0.028107	1.000000	0.000027	0.000028	0.000014	-4.509291	-76.126768	-2.937764
15038	9.571791	-0.187735	2.303658	0.051041	-0.008651	0.034067	1.000000	0.000031	0.000020	0.000011	-4.510325	-76.124550	-2.933332
15039	9.571721	-0.187838	2.303939	0.050324	-0.008434	0.034071	1.000000	0.000040	0.000008	0.000017	-4.518039	-76.127762	-2.925699
15040	9.570095	-0.181670	2.338099	0.018111	0.002308	0.040540	1.000000	0.000015	0.000020	0.000022	-4.526115	-76.125551	-2.915980
15041	9.539035	-0.167307	2.334297	0.015326	0.016775	0.009207	1.000000	0.000042	0.000022	0.000028	-4.532873	-76.130417	-2.903080
15042	9.569893	-0.182106	2.338891	0.016772	0.002377	0.040543	1.000000	0.000036	0.000018	0.000001	-4.529210	-76.128666	-2.902847
15043	9.580580	-0.160570	2.335579	0.024267	0.023260	0.049721	1.000000	0.000026	0.000011	0.000022	-4.535371	-76.134745	-2.892454
15044	9.569751	-0.182432	2.339449	0.015424	0.002433	0.040545	1.000000	0.000028	0.000016	0.000016	-4.539599	-76.133115	-2.885025
15045	9.580431	-0.160997	2.336161	0.023334	0.023379	0.049723	1.000000	0.000028	0.000016	0.000016	-4.544701	-76.136302	-2.878133
15046	9.569572	-0.182834	2.340148	0.014486	0.002553	0.040546	1.000000	0.000025	0.000023	0.000020	-4.550527	-76.133830	-2.869481
15047	9.565489	-0.157270	2.318097	0.037824	0.025372	0.030829	1.000000	0.000034	0.000039	0.000015	-4.554106	-76.133928	-2.865110
15048	9.569305	-0.183302	2.341202	0.013625	0.002700	0.040547	1.000000	0.000024	0.000007	0.000028	-4.564743	-76.133278	-2.851660
15049	9.569243	-0.183446	2.341446	0.013250	0.002670	0.040548	1.000000	0.000036	0.000018	0.000001	-4.559403	-76.133413	-2.852303
15050	9.583837	-0.187679	2.360890	-0.002162	0.000846	0.059443	1.000000	0.000042	0.000022	0.000028	-4.567158	-76.131067	-2.839733
15051	9.554349	-0.179582	2.323200	0.027751	0.004592	0.021656	1.000000	0.000022	0.000021	0.000007	-4.567076	-76.133184	-2.838650
15052	9.554258	-0.179684	2.323565	0.027687	0.004616	0.021656	1.000000	0.000028	0.000016	0.000016	-4.571373	-76.131603	-2.831198
15053	9.568860	-0.184121	2.342955	0.011763	0.002992	0.040550	1.000000	0.000031	0.000018	0.000030	-4.585693	-76.132687	-2.819482
15054	9.552531	-0.173786	2.358051	-0.005128	0.015593	0.028105	1.000000	0.000024	0.000009	0.000009	-4.587559	-76.131920	-2.815158
15055	9.570324	-0.190958	2.309478	0.043366	-0.007672	0.034105	1.000000	0.000030	0.000004	0.000019	-4.593190	-76.134273	-2.807504
15056	9.568681	-0.184594	2.343650	0.011122	0.003085	0.040551	1.000000	0.000033	0.000025	0.000005	-4.591245	-76.131757	-2.806008
15057	9.579363	-0.163123	2.340388	0.019389	0.024161	0.049729	1.000000	0.000034	0.000010	0.000026	-4.604210	-76.133431	-2.795509
15058	9.553819	-0.180902	2.325275	0.025890	0.005191	0.021660	1.000000	0.000025	0.000023	0.000020	-4.610269	-76.130977	-2.786766
15059	9.571546	-0.198241	2.276989	0.074300	-0.017960	0.027670	1.000000	0.000014	0.000020	0.000021	-4.621122	-76.132022	-2.778654
15060	9.553597	-0.181460	2.326145	0.025236	0.005386	0.021662	1.000000	0.000036	0.000027	0.000018	-4.625016	-76.129176	-2.770934
15061	9.569752	-0.192246	2.311742	0.041196	-0.006919	0.034115	1.000000	0.000037	0.000015	0.000020	-4.635503	-76.132375	-2.763235
15062	9.553403	-0.181777	2.326917	0.024306	0.005699	0.021664	1.000000	0.000022	0.000021	0.000007	-4.636023	-76.130308	-2.760595
15063	9.571145	-0.198908	2.278618	0.072699	-0.017551	0.027683	1.000000	0.000047	0.000019	0.000019	-4.639520	-76.131519	-2.753430
15064	9.567917	-0.186266	2.346634	0.008273	0.003971	0.040553	1.000000	0.000024	0.000007	0.000028	-4.650538	-76.130925	-2.739823
15065	9.569435	-0.192876	2.313000	0.040324	-0.006583	0.034119	1.000000	0.000036	0.000018	0.000001	-4.650936	-76.129655	-2.740578
15066	9.569344	-0.192816	2.313384	0.040254	-0.006539	0.034119	1.000000	0.000022	0.000021	0.000007	-4.651548	-76.127576	-2.737899
15067	9.563763	-0.160675	2.324975	0.031836	0.027097	0.030845	1.000000	0.000039	0.000020	0.000015	-4.657927	-76.127599	-2.732266
15068	9.552889	-0.182537	2.328968	0.022970	0.006301	0.021667	1.000000	0.000031	0.000018	0.000030	-4.668423	-76.125699	-2.718442
15069	9.583729	-0.197501	2.333607	0.023808	-0.007916	0.053009	1.000000	0.000031	0.000020	0.000011	-4.673169	-76.126874	-2.715331
15070	9.568938	-0.193493	2.315004	0.039101	-0.006036	0.034124	1.000000	0.000036	0.000027	0.000018	-4.677372	-76.124051	-2.707487
15071	9.568805	-0.193647	2.315541	0.038823	-0.005863	0.034125	1.000000	0.000027	0.000028	0.000014	-4.683512	-76.122385	-2.703438
15072	9.563226	-0.161482	2.327127	0.030747	0.027613	0.030848	1.000000	0.000026	0.000014	0.000003	-4.682747	-76.121171	-2.701884
15073	9.568626	-0.193747	2.316271	0.037811	-0.005601	0.034129	1.000000	0.000056	0.000018	0.000023	-4.690339	-76.124498	-2.692922
15074	9.579334	-0.172369	2.312943	0.046539	0.015293	0.043308	1.000000	0.000018	0.000012	0.000018	-4.697542	-76.123373	-2.684141
15075	9.593908	-0.176711	2.332403	0.030044	0.013536	0.062195	1.000000	0.000036	0.000027	0.000018	-4.701074	-76.126726	-2.678363
15076	9.579121	-0.172688	2.313801	0.045333	0.015417	0.043314	1.000000	0.000022	0.000021	0.000006	-4.701927	-76.124709	-2.675589
15077	9.551979	-0.183759	2.332602	0.018866	0.007473	0.021675	1.000000	0.000020	0.000017	0.000012	-4.711458	-76.127806	-2.672253
15078	9.578941	-0.172893	2.314532	0.044387	0.015783	0.043318	1.000000	0.000039	0.000020	0.000015	-4.714302	-76.125936	-2.665532
15079	9.578878	-0.173019	2.314783	0.044110	0.016212	0.043318	1.000000	0.000013	0.000006	0.000011	-4.728205	-76.126916	-2.662311
15080	9.567999	-0.194575	2.318794	0.035221	-0.004562	0.034139	1.000000	0.000054	0.000032	0.000001	-4.722606	-76.123696	-2.662587
15081	9.562419	-0.162418	2.330377	0.025924	0.029105	0.030857	1.000000	0.000034	0.000010	0.000026	-4.734897	-76.129991	-2.651262
15082	9.582471	-0.199047	2.338636	0.018444	-0.006074	0.053022	1.000000	0.000025	0.000023	0.000020	-4.741719	-76.127693	-2.642214
15083	9.563836	-0.169445	2.297223	0.056703	0.018119	0.024455	1.000000	0.000028	0.000016	0.000016	-4.737005	-76.133250	-2.635284
15084	9.562156	-0.163121	2.331406	0.024430	0.028954	0.030861	1.000000	0.000028	0.000016	0.000016	-4.742171	-76.131884	-2.627480
15085	9.551284	-0.184917	2.335352	0.014004	0.008093	0.021683	1.000000	0.000037	0.000015	0.000020	-4.744485	-76.139477	-2.619495
15086	9.578247	-0.174186	2.317304	0.039485	0.016403	0.043337	1.000000	0.000025	0.000023	0.000020	-4.751184	-76.137310	-2.610509
15087	9.551098	-0.185437	2.336070	0.013117	0.008061	0.021684	1.000000	0.000026	0.000011	0.000022	-4.754932	-76.140293	-2.602655
15088	9.576458	-0.168194	2.351891	0.006420	0.027142	0.049739	1.000000	0.000036	0.000027	0.000018	-4.759371	-76.137738	-2.594736
15089	9.581818	-0.200428	2.341192	0.013482	-0.006061	0.053030	1.000000	0.000036	0.000018	0.000001	-4.759728	-76.141171	-2.596662
15090	9.577849	-0.174866	2.318899	0.037548	0.016657	0.043345	1.000000	0.000011	0.000027	0.000025	-4.770242	-76.138579	-2.585421
15091	9.561468	-0.164514	2.334127	0.019840	0.029478	0.030870	1.000000	0.000047	0.000019	0.000019	-4.777382	-76.141723	-2.579173
15092	9.583088	-0.207503	2.308675	0.044477	-0.016479	0.046642	1.000000	0.000027	0.000028	0.000014	-4.780990	-76.139169	-2.573165
15093	9.577498	-0.175497	2.320300	0.035480	0.017356	0.043351	1.000000	0.000033	0.000022	0.000024	-4.796204	-76.142454	-2.564216
15094	9.561144	-0.165164	2.335409	0.018565	0.030024	0.030871	1.000000	0.000026	0.000011	0.000022	-4.804739	-76.141742	-2.553336
15095	9.577352	-0.176127	2.320853	0.036337	0.017276	0.043348	1.000000	0.000034	0.000010	0.000026	-4.810001	-76.134407	-2.543952
15096	9.560997	-0.165629	2.335978	0.019437	0.029944	0.030870	1.000000	0.000033	0.000025	0.000005	-4.808968	-76.132211	-2.542107
15097	9.577164	-0.176450	2.321604	0.036165	0.017643	0.043348	1.000000	0.000004	0.000016	0.000023	-4.826083	-76.130553	-2.535093
15098	9.575468	-0.170096	2.355783	0.003883	0.028511	0.049736	1.000000	0.000053	0.000016	0.000010	-4.825503	-76.129328	-2.530483
15099	9.576987	-0.176711	2.322315	0.034183	0.018449	0.043354	1.000000	0.000017	0.000024	0.000016	-4.845981	-76.137577	-2.525370
15100	9.580730	-0.202601	2.345454	0.009842	-0.004099	0.053035	1.000000	0.000028	0.000016	0.000016	-4.851596	-76.136374	-2.517389
15101	9.576836	-0.177120	2.322908	0.033596	0.018846	0.043355	1.000000	0.000030	0.000004	0.000019	-4.864341	-76.138500	-2.511675
15102	9.560515	-0.166681	2.337874	0.016697	0.031540	0.030870	1.000000	0.000028	0.000016	0.000016	-4.870047	-76.137297	-2.503656
15103	9.580550	-0.203238	2.346137	0.008667	-0.003498	0.053037	1.000000	0.000018	0.000012	0.000018	-4.880186	-76.139163	-2.497857
15104	9.576650	-0.177698	2.323631	0.032756	0.019214	0.043357	1.000000	0.000042	0.000012	0.000011	-4.882173	-76.138443	-2.492055
15105	9.565777	-0.199426	2.327532	0.022500	-0.001522	0.034178	1.000000	0.000018	0.000012	0.000018	-4.888930	-76.145276	-2.485102
15106	9.561830	-0.174041	2.305219	0.046582	0.021189	0.024502	1.000000	0.000049	0.000033	0.000029	-4.897482	-76.142106	-2.471821
15107	9.591014	-0.182438	2.343833	0.015944	0.017548	0.062222	1.000000	0.000024	0.000009	0.000009	-4.897510	-76.139969	-2.472804
15108	9.560028	-0.167747	2.339788	0.014445	0.032040	0.030872	1.000000	0.000031	0.000020	0.000011	-4.900101	-76.138335	-2.467774
15109	9.577826	-0.185040	2.291566	0.062616	0.008772	0.036996	1.000000	0.000039	0.000020	0.000015	-4.904995	-76.140404	-2.465245
15110	9.574485	-0.172078	2.359629	-0.001845	0.030513	0.049731	1.000000	0.000037	0.000015	0.000020	-4.911776	-76.139310	-2.455224
15111	9.559729	-0.168115	2.340985	0.012498	0.032864	0.030871	1.000000	0.000038	0.000032	0.000012	-4.924399	-76.141972	-2.452419
15112	9.575892	-0.178811	2.326664	0.029109	0.020346	0.043366	1.000000	0.000042	0.000012	0.000011	-4.926590	-76.141332	-2.446536
15113	9.577454	-0.185645	2.293072	0.061222	0.009194	0.037005	1.000000	0.000020	0.000014	0.000031	-4.930292	-76.139567	-2.435557
15114	9.559492	-0.168717	2.341907	0.012164	0.032737	0.030872	1.000000	0.000032	0.000009	0.000013	-4.934649	-76.139308	-2.428649
15115	9.577314	-0.186138	2.293615	0.060525	0.009333	0.037009	1.000000	0.000025	0.000023	0.000020	-4.940506	-76.139704	-2.422806
15116	9.544695	-0.164988	2.323429	0.026874	0.034662	0.012017	1.000000	0.000032	0.000009	0.000013	-4.944883	-76.139454	-2.415891
15117	9.575540	-0.179892	2.328031	0.026953	0.020076	0.043373	1.000000	0.000028	0.000016	0.000016	-4.942655	-76.144839	-2.408735
15118	9.575460	-0.180075	2.328346	0.026802	0.020170	0.043373	1.000000	0.000028	0.000016	0.000016	-4.948528	-76.143763	-2.400662
15119	9.571542	-0.154589	2.305989	0.050060	0.042686	0.033711	1.000000	0.000036	0.000027	0.000018	-4.948241	-76.146200	-2.395766
15120	9.571457	-0.154892	2.306323	0.049904	0.042779	0.033712	1.000000	0.000024	0.000007	0.000028	-4.960478	-76.146078	-2.381668
15121	9.576834	-0.187405	2.295515	0.056832	0.009732	0.037031	1.000000	0.000039	0.000020	0.000015	-4.970904	-76.149619	-2.378299
15122	9.558830	-0.170240	2.344500	0.007761	0.033288	0.030875	1.000000	0.000039	0.000020	0.000015	-4.974622	-76.148203	-2.371254
15123	9.585839	-0.159485	2.326436	0.034188	0.041786	0.052561	1.000000	0.000028	0.000016	0.000016	-4.986544	-76.141364	-2.368883
15124	9.574932	-0.181239	2.330427	0.025200	0.021066	0.043376	1.000000	0.000028	0.000016	0.000016	-4.992590	-76.140281	-2.360742
15125	9.574843	-0.181379	2.330779	0.024228	0.020763	0.043379	1.000000	0.000039	0.000020	0.000015	-4.985655	-76.143486	-2.357966
15126	9.585585	-0.159968	2.327447	0.032908	0.041686	0.052566	1.000000	0.000037	0.000015	0.000020	-4.992596	-76.142491	-2.347895
15127	9.560042	-0.177633	2.312350	0.038658	0.022746	0.024533	1.000000	0.000047	0.000019	0.000019	-4.996895	-76.145045	-2.341347
15128	9.574602	-0.182000	2.331723	0.023082	0.021072	0.043381	1.000000	0.000024	0.000007	0.000028	-5.009300	-76.144938	-2.327184
15129	9.590811	-0.192832	2.317235	0.039192	0.008690	0.055889	1.000000	0.000036	0.000018	0.000001	-5.010481	-76.146656	-2.329945
15130	9.543568	-0.167437	2.327879	0.020970	0.035815	0.012027	1.000000	0.000018	0.000012	0.000018	-5.018799	-76.146041	-2.320737
15131	9.574377	-0.182490	2.332606	0.019973	0.021532	0.043386	1.000000	0.000033	0.000022	0.000024	-5.025521	-76.156832	-2.312543
15132	9.574253	-0.182705	2.333099	0.019794	0.021637	0.043387	1.000000	0.000027	0.000028	0.000014	-5.029957	-76.154574	-2.306239
15133	9.584998	-0.161260	2.329773	0.028361	0.042184	0.052578	1.000000	0.000032	0.000009	0.000013	-5.025144	-76.154950	-2.302507
15134	9.574091	-0.182908	2.333748	0.019347	0.021467	0.043388	1.000000	0.000031	0.000020	0.000011	-5.028002	-76.153564	-2.297399
15135	9.548577	-0.200580	2.318524	0.024004	0.002539	0.015361	1.000000	0.000019	0.000000	0.000021	-5.036772	-76.164675	-2.289454
15136	9.584813	-0.161695	2.330506	0.026057	0.042515	0.052583	1.000000	0.000049	0.000023	0.000013	-5.038379	-76.163022	-2.283436
15137	9.564719	-0.211423	2.304327	0.039867	-0.010234	0.027881	1.000000	0.000046	0.000005	0.000008	-5.029902	-76.166293	-2.281836
15138	9.573835	-0.183339	2.334765	0.016346	0.021544	0.043393	1.000000	0.000025	0.000023	0.000020	-5.037473	-76.164581	-2.272544
15139	9.584591	-0.161920	2.331401	0.004594	0.017042	0.052693	1.000000	0.000015	0.000010	0.000005	-4.393597	-76.277975	-3.388926
15140	9.586172	-0.168612	2.297853	0.036307	0.005816	0.046415	1.000000	0.000039	0.000020	0.000015	-4.392027	-76.277701	-3.389587
15141	9.558945	-0.179606	2.316726	0.010245	-0.002198	0.024629	1.000000	0.000035	0.000027	0.000018	-4.392248	-76.277176	-3.390544
15142	9.577224	-0.209589	2.359121	-0.030092	-0.026393	0.052960	1.000000	0.000023	0.000019	0.000025	-4.397692	-76.276900	-3.385904
15143	9.569559	-0.158582	2.313935	0.018443	0.018302	0.033897	1.000000	0.000027	0.000028	0.000014	-4.396632	-76.276043	-3.379950
15144	9.569455	-0.158780	2.314350	0.018077	0.018192	0.033898	1.000000	0.000045	0.000014	0.000025	-4.399243	-76.276300	-3.375606
15145	9.589419	-0.195140	2.322794	0.009813	-0.017130	0.055951	1.000000	0.000020	0.000019	-0.000007	-4.389804	-76.276260	-3.379116
15146	9.594732	-0.141332	2.330529	0.010843	0.037001	0.061964	1.000000	0.000025	0.000023	0.000020	-4.392042	-76.275516	-3.377505
15147	9.569211	-0.158947	2.315348	0.016903	0.017859	0.033900	1.000000	0.000027	0.000002	0.000006	-4.388497	-76.277729	-3.379228
15148	9.572913	-0.184536	2.338447	-0.007950	-0.004652	0.043426	1.000000	0.000033	0.000025	0.000005	-4.382746	-76.276924	-3.384896
15149	9.558219	-0.180489	2.319650	0.007076	-0.003062	0.024632	1.000000	0.000032	0.000009	0.000013	-4.382101	-76.278506	-3.387805
15150	9.552719	-0.148300	2.330944	-0.000878	0.030354	0.021376	1.000000	0.000031	0.000021	0.000010	-4.379554	-76.278168	-3.390446
15151	9.585182	-0.169853	2.301888	0.031858	0.004626	0.046431	1.000000	0.000028	0.000016	0.000016	-4.380221	-76.278679	-3.392155
15152	9.588838	-0.195653	2.325149	0.006994	-0.017878	0.055952	1.000000	0.000035	0.000027	0.000018	-4.380232	-76.277529	-3.391595
15153	9.567045	-0.152799	2.351206	-0.017538	0.028329	0.040168	1.000000	0.000032	0.000009	0.000013	-4.378776	-76.278528	-3.383882
15154	9.574079	-0.192038	2.306598	0.021753	-0.016439	0.037162	1.000000	0.000020	0.000014	0.000031	-4.387424	-76.278719	-3.376216
15155	9.583181	-0.164008	2.337045	-0.001750	0.015298	0.052697	1.000000	0.000036	0.000018	0.000001	-4.379983	-76.279131	-3.383183
15156	9.568510	-0.159909	2.318178	0.013381	0.016866	0.033908	1.000000	0.000024	0.000009	0.000009	-4.378081	-76.280073	-3.385996
15157	9.572202	-0.185668	2.341267	-0.011510	-0.005645	0.043422	1.000000	0.000037	0.000015	0.000020	-4.379417	-76.280397	-3.378417
15158	9.582966	-0.164255	2.337911	-0.002876	0.014958	0.052697	1.000000	0.000031	0.000021	0.000010	-4.376868	-76.280059	-3.381060
15159	9.572039	-0.185870	2.341917	-0.012275	-0.005891	0.043421	1.000000	0.000024	0.000009	0.000009	-4.374275	-76.281163	-3.374867
15160	9.566525	-0.153709	2.353262	-0.020219	0.027528	0.040165	1.000000	0.000035	0.000027	0.000018	-4.374285	-76.280013	-3.374309
15161	9.571862	-0.186167	2.342618	-0.013029	-0.006130	0.043420	1.000000	0.000048	0.000007	0.000021	-4.374783	-76.281242	-3.365286
15162	9.586357	-0.190401	2.362182	-0.028900	-0.007918	0.062205	1.000000	0.000016	0.000036	0.000013	-4.374416	-76.279090	-3.367466
15163	9.557055	-0.182506	2.324287	0.001686	-0.004658	0.024634	1.000000	0.000038	0.000003	0.000023	-4.377901	-76.280928	-3.369634
15164	9.556977	-0.182727	2.324589	0.001318	-0.004768	0.024634	1.000000	0.000035	0.000027	0.000018	-4.377909	-76.279776	-3.369079
15165	9.582321	-0.165512	2.340465	-0.005627	0.014155	0.052697	1.000000	0.000023	0.000019	0.000025	-4.383182	-76.279945	-3.364374
15166	9.560531	-0.208870	2.348165	-0.024007	-0.027370	0.034136	1.000000	0.000040	0.000008	0.000017	-4.383237	-76.281012	-3.363230
15167	9.556714	-0.183469	2.325613	0.000070	-0.005084	0.024634	1.000000	0.000025	0.000023	0.000020	-4.385727	-76.280667	-3.367174
15168	9.582101	-0.166202	2.341317	-0.006795	0.013842	0.052697	1.000000	0.000021	0.000005	0.000015	-4.387031	-76.282076	-3.366958
15169	9.567461	-0.162417	2.322328	0.008299	0.015406	0.033916	1.000000	0.000034	0.000011	0.000026	-4.391919	-76.283017	-3.364481
15170	9.571142	-0.188241	2.345390	-0.016592	-0.007075	0.043414	1.000000	0.000032	0.000009	0.000013	-4.390997	-76.284021	-3.365316
15171	9.587337	-0.198987	2.331047	-0.000460	-0.020009	0.055950	1.000000	0.000025	0.000026	0.000001	-4.384323	-76.283487	-3.375866
15172	9.598112	-0.177564	2.327686	0.008187	0.000582	0.065234	1.000000	0.000034	0.000011	0.000026	-4.389165	-76.284145	-3.370472
15173	9.581746	-0.167118	2.342703	-0.008800	0.013334	0.052696	1.000000	0.000025	0.000023	0.000020	-4.391895	-76.283789	-3.379960
15174	9.570799	-0.188843	2.346744	-0.018190	-0.007474	0.043411	1.000000	0.000032	0.000009	0.000013	-4.390973	-76.284793	-3.380795
15175	9.557846	-0.191582	2.293948	0.028958	-0.017102	0.018395	1.000000	0.000024	0.000009	0.000009	-4.389053	-76.286095	-3.385229
15176	9.556070	-0.185000	2.328136	-0.003474	-0.006028	0.024632	1.000000	0.000035	0.000027	0.000018	-4.389058	-76.284942	-3.384679
15177	9.572262	-0.195932	2.313800	0.012694	-0.018988	0.037173	1.000000	0.000048	0.000007	0.000021	-4.389903	-76.286139	-3.378471
15178	9.566775	-0.163859	2.325049	0.004805	0.014442	0.033919	1.000000	0.000025	0.000023	0.000020	-4.392135	-76.285391	-3.376870
15179	9.570386	-0.189583	2.348368	-0.020158	-0.008012	0.043406	1.000000	0.000022	0.000021	0.000006	-4.388679	-76.285288	-3.383651
15180	9.570304	-0.189621	2.348696	-0.020527	-0.008121	0.043406	1.000000	0.000051	0.000011	0.000015	-4.386508	-76.285948	-3.383558
15181	9.564808	-0.157337	2.359991	-0.028417	0.025304	0.040151	1.000000	0.000041	0.000024	0.000009	-4.381518	-76.285252	-3.383476
15182	9.582648	-0.174826	2.312045	0.019820	0.001153	0.046464	1.000000	0.000038	0.000032	0.000012	-4.378314	-76.283631	-3.385959
15183	9.580846	-0.168121	2.346310	-0.012643	0.012229	0.052693	1.000000	0.000034	0.000013	0.000007	-4.373934	-76.284350	-3.384709
15184	9.580714	-0.168311	2.346835	-0.013011	0.012120	0.052693	1.000000	0.000045	0.000040	0.000032	-4.379052	-76.281569	-3.377765
15185	9.569750	-0.189986	2.350925	-0.022457	-0.008671	0.043401	1.000000	0.000022	-0.000005	-0.000001	-4.373139	-76.284474	-3.390956
15186	9.564339	-0.157555	2.361879	-0.030327	0.024766	0.040147	1.000000	0.000029	0.000007	0.000000	-4.366450	-76.285823	-3.398024
15187	9.580576	-0.168429	2.347390	-0.014180	0.011808	0.052691	1.000000	0.000034	0.000011	0.000026	-4.371365	-76.286607	-3.396072
15188	9.549650	-0.153785	2.343131	-0.015554	0.026206	0.021376	1.000000	0.000034	0.000013	0.000007	-4.367233	-76.287142	-3.399942
15189	9.553301	-0.179399	2.366250	-0.040492	0.003766	0.030850	1.000000	0.000032	0.000009	0.000013	-4.366281	-76.288190	-3.407193
15190	9.549552	-0.153934	2.343521	-0.016290	0.025991	0.021375	1.000000	0.000032	0.000009	0.000013	-4.365358	-76.289193	-3.408031
15191	9.552942	-0.167425	2.275921	0.047448	0.003436	0.008936	1.000000	0.000030	-0.000005	0.000003	-4.360035	-76.291925	-3.411448
15192	9.569472	-0.190330	2.352027	-0.025075	-0.009430	0.043394	1.000000	0.000035	0.000027	0.000018	-4.360038	-76.290770	-3.410901
15193	9.554828	-0.186441	2.333112	-0.009882	-0.007913	0.024627	1.000000	0.000025	-0.000003	0.000012	-4.359356	-76.292864	-3.408472
15194	9.581964	-0.175918	2.314796	0.015319	-0.000203	0.046472	1.000000	0.000034	0.000011	0.000026	-4.364201	-76.293520	-3.403079
15195	9.592818	-0.154457	2.311151	0.024012	0.020356	0.055770	1.000000	0.000033	-0.000001	-0.000003	-4.355598	-76.295635	-3.407388
15196	9.551056	-0.161129	2.310476	0.013610	0.014072	0.015159	1.000000	0.000032	0.000009	0.000013	-4.354672	-76.296637	-3.408229
15197	9.596470	-0.180039	2.334254	-0.001314	-0.002203	0.065237	1.000000	0.000035	0.000001	0.000010	-4.351858	-76.298589	-3.410925
15198	9.619902	-0.143905	2.293063	0.048464	0.027823	0.077623	1.000000	0.000026	0.000011	0.000022	-4.355722	-76.299183	-3.407514
15199	9.581806	-0.176571	2.315400	0.013456	-0.000791	0.046475	1.000000	0.000032	0.000006	0.000032	-4.363527	-76.300455	-3.400440
15200	9.578053	-0.151342	2.292701	0.037673	0.021418	0.037013	1.000000	0.000028	0.000016	0.000016	-4.364179	-76.300581	-3.400064
15201	9.568816	-0.179659	2.262867	0.060326	-0.010624	0.021505	1.000000	0.000029	0.000007	0.000000	-4.357029	-76.301824	-3.404669
15202	9.592539	-0.155386	2.312246	0.021419	0.019538	0.055777	1.000000	0.000032	0.000009	0.000013	-4.356103	-76.302826	-3.405512
15203	9.581574	-0.177096	2.316320	0.011967	-0.001260	0.046476	1.000000	0.000025	0.000023	0.000020	-4.358094	-76.302271	-3.406717
15204	9.568571	-0.180135	2.263867	0.059188	-0.010975	0.021512	1.000000	0.000021	0.000031	0.000023	-4.361899	-76.300645	-3.403905
15205	9.592198	-0.156202	2.313604	0.020268	0.019186	0.055780	1.000000	0.000041	0.000022	0.000028	-4.365849	-76.300115	-3.400540
15206	9.566598	-0.173997	2.298746	0.026385	0.000033	0.027719	1.000000	0.000032	0.000035	0.000021	-4.367423	-76.298083	-3.398784
15207	9.581036	-0.178154	2.318462	0.010456	-0.001727	0.046478	1.000000	0.000022	0.000021	0.000006	-4.363451	-76.297796	-3.401740
15208	9.555450	-0.195871	2.303547	0.016573	-0.020879	0.018417	1.000000	0.000038	0.000029	0.000031	-4.369221	-76.296293	-3.394967
15209	9.569862	-0.200223	2.323343	0.000603	-0.022621	0.037173	1.000000	0.000032	0.000035	0.000021	-4.370751	-76.294580	-3.402044
15210	9.580568	-0.178824	2.320342	0.009296	-0.002058	0.046479	1.000000	0.000037	0.000044	0.000009	-4.365901	-76.291614	-3.406358
15211	9.573185	-0.226197	2.347675	-0.024781	-0.045150	0.046621	1.000000	0.000025	0.000021	0.000039	-4.376783	-76.291195	-3.395159
15212	9.538533	-0.186165	2.320708	-0.001495	-0.008443	0.005861	1.000000	0.000038	0.000032	0.000012	-4.373569	-76.289571	-3.397655
15213	9.594716	-0.183522	2.341184	-0.007412	-0.004043	0.065234	1.000000	0.000022	0.000021	0.000006	-4.369628	-76.289278	-3.395718
15214	9.556535	-0.215811	2.363752	-0.042406	-0.032602	0.034058	1.000000	0.000039	0.000020	0.000015	-4.368052	-76.288997	-3.396395
15215	9.567324	-0.194467	2.360411	-0.033709	-0.012054	0.043365	1.000000	0.000025	0.000023	0.000020	-4.370021	-76.288235	-3.388083
15216	9.548979	-0.165166	2.318765	0.006083	0.011764	0.015169	1.000000	0.000052	0.000025	0.000026	-4.371984	-76.287201	-3.383582
15217	9.583369	-0.205662	2.346731	-0.017963	-0.025165	0.055922	1.000000	0.000022	0.000021	0.000006	-4.368327	-76.286872	-3.386333
15218	9.568729	-0.201829	2.327868	-0.002783	-0.023646	0.037171	1.000000	0.000034	0.000011	0.000026	-4.373172	-76.287524	-3.380944
15219	9.563265	-0.169556	2.339041	-0.010607	0.009804	0.033921	1.000000	0.000047	0.000021	-0.000000	-4.363531	-76.287342	-3.387077
15220	9.583107	-0.205816	2.347791	-0.019099	-0.025493	0.055919	1.000000	0.000031	0.000021	0.000010	-4.360971	-76.286999	-3.389737
15221	9.552180	-0.191006	2.343562	-0.020429	-0.011074	0.024607	1.000000	0.000034	0.000013	0.000007	-4.356951	-76.287654	-3.394920
15222	9.563019	-0.169472	2.340051	-0.011728	0.009483	0.033920	1.000000	0.000034	0.000013	0.000007	-4.352818	-76.288187	-3.398794
15223	9.566625	-0.194940	2.363206	-0.036711	-0.012909	0.043353	1.000000	0.000037	0.000006	0.000004	-4.347200	-76.289550	-3.406238
15224	9.573823	-0.147946	2.336685	-0.003382	0.029934	0.043233	1.000000	0.000028	0.000016	0.000016	-4.347851	-76.289673	-3.405866
15225	9.537370	-0.187105	2.325406	-0.006358	-0.009881	0.005857	1.000000	0.000039	0.000020	0.000015	-4.346268	-76.289513	-3.406319
15226	9.579011	-0.180599	2.326625	0.003275	-0.003849	0.046482	1.000000	0.000025	0.000023	0.000019	-4.348492	-76.288760	-3.404733
15227	9.564367	-0.176694	2.307804	0.018457	-0.002340	0.027737	1.000000	0.000026	0.000014	0.000003	-4.343337	-76.289274	-3.405508
15228	9.562550	-0.169893	2.341939	-0.013951	0.008834	0.033917	1.000000	0.000039	0.000020	0.000015	-4.341761	-76.288992	-3.406187
15229	9.562461	-0.170032	2.342292	-0.014337	0.008733	0.033917	1.000000	0.000028	0.000016	0.000016	-4.342563	-76.289232	-3.409446
15230	9.578679	-0.180963	2.327966	0.001775	-0.004282	0.046483	1.000000	0.000042	0.000012	0.000011	-4.339413	-76.289825	-3.411339
15231	9.574959	-0.155509	2.305310	0.026044	0.017886	0.037058	1.000000	0.000039	0.000020	0.000015	-4.337933	-76.289560	-3.415707
15232	9.585789	-0.134021	2.301857	0.034758	0.038432	0.046378	1.000000	0.000026	0.000014	0.000003	-4.332814	-76.290030	-3.421566
15233	9.574789	-0.155633	2.306009	0.025294	0.017667	0.037060	1.000000	0.000025	0.000023	0.000019	-4.335145	-76.289386	-3.424416
15234	9.600149	-0.138182	2.321820	0.018448	0.036600	0.065122	1.000000	0.000036	0.000018	0.000001	-4.327800	-76.289451	-3.431327
15235	9.589150	-0.159832	2.325961	0.008985	0.015828	0.055803	1.000000	0.000031	0.000018	0.000029	-4.334069	-76.289288	-3.424531
15236	9.561808	-0.170956	2.344886	-0.016936	0.007980	0.033913	1.000000	0.000034	0.000037	0.000034	-4.341403	-76.286903	-3.416558
15237	9.574312	-0.156618	2.307922	0.023806	0.017210	0.037065	1.000000	0.000035	0.000027	0.000018	-4.341217	-76.285803	-3.415774
15238	9.545207	-0.160649	2.360708	-0.034147	0.020676	0.021342	1.000000	0.000032	0.000035	0.000021	-4.342782	-76.283766	-3.414031
15239	9.575861	-0.175689	2.366021	-0.033614	0.006032	0.052650	1.000000	0.000042	0.000038	0.000019	-4.341895	-76.281313	-3.413436
15240	9.553793	-0.207192	2.283467	0.036560	-0.035751	0.012255	1.000000	0.000024	0.000007	0.000028	-4.348965	-76.282368	-3.407002
15241	9.530257	-0.157240	2.343130	-0.019679	0.021944	0.002602	1.000000	0.000034	0.000042	-0.000004	-4.338161	-76.279777	-3.417097
15242	9.577228	-0.182975	2.333768	-0.002692	-0.005617	0.046482	1.000000	0.000041	0.000022	0.000028	-4.342349	-76.279144	-3.411554
15243	9.553560	-0.219389	2.375419	-0.053281	-0.035709	0.033995	1.000000	0.000021	0.000005	0.000015	-4.343483	-76.280564	-3.413931
15244	9.573598	-0.169610	2.401804	-0.067491	0.016806	0.058806	1.000000	0.000034	0.000013	0.000007	-4.339352	-76.281095	-3.417806
15245	9.522637	-0.204734	2.371165	-0.054913	-0.021385	0.002682	1.000000	0.000029	0.000004	0.000019	-4.341628	-76.282594	-3.421944
15246	9.562487	-0.179712	2.315348	0.011398	-0.004461	0.027747	1.000000	0.000026	0.000012	0.000022	-4.345488	-76.283181	-3.418542
15247	9.564289	-0.198566	2.372342	-0.045676	-0.015489	0.043312	1.000000	0.000040	0.000008	0.000017	-4.345421	-76.284270	-3.414898
15248	9.566001	-0.205680	2.338717	-0.014018	-0.026930	0.037153	1.000000	0.000007	0.000009	0.000020	-4.350522	-76.285201	-3.412429
15249	9.549697	-0.194977	2.353334	-0.030831	-0.014104	0.024576	1.000000	0.000039	-0.000006	0.000007	-4.346450	-76.287916	-3.416474
15250	9.602372	-0.167023	2.350346	-0.012123	0.012543	0.074540	1.000000	-0.000003	0.000005	0.000022	-4.353778	-76.289252	-3.412952
15251	9.565947	-0.206305	2.338880	-0.015091	-0.027267	0.037150	1.000000	0.000032	0.000009	0.000013	-4.352656	-76.290093	-3.407650
15252	9.587728	-0.163370	2.331571	0.002744	0.013911	0.055810	1.000000	0.000022	0.000021	0.000006	-4.349105	-76.289686	-3.412302
15253	9.560433	-0.174050	2.350260	-0.023161	0.006099	0.033902	1.000000	0.000024	0.000009	0.000009	-4.347246	-76.290561	-3.419155
15254	9.585818	-0.156582	2.365967	-0.030002	0.025038	0.061962	1.000000	0.000022	0.000021	0.000006	-4.343695	-76.290154	-3.423807
15255	9.549309	-0.195663	2.354850	-0.032994	-0.014755	0.024568	1.000000	0.000027	0.000028	0.000014	-4.342734	-76.288881	-3.427909
15256	9.576449	-0.185192	2.336790	-0.007813	-0.007166	0.046478	1.000000	0.000021	0.000005	0.000015	-4.344040	-76.290283	-3.427701
15257	9.590951	-0.189247	2.356107	-0.023753	-0.008864	0.065205	1.000000	0.000046	0.000005	0.000008	-4.339358	-76.291684	-3.434998
15258	9.576376	-0.185368	2.337073	-0.008539	-0.007383	0.046477	1.000000	0.000018	0.000012	0.000018	-4.342232	-76.292209	-3.433581
15259	9.587217	-0.164136	2.333615	0.000219	0.013148	0.055811	1.000000	0.000025	0.000023	0.000019	-4.344555	-76.291386	-3.437168
15260	9.576196	-0.185912	2.337769	-0.009265	-0.007597	0.046476	1.000000	0.000026	0.000012	0.000022	-4.348415	-76.291972	-3.433767
15261	9.561625	-0.182198	2.318715	0.005958	-0.006117	0.027751	1.000000	0.000029	0.000004	0.000019	-4.350809	-76.293399	-3.436470
15262	9.576133	-0.186294	2.337997	-0.009996	-0.007810	0.046476	1.000000	0.000027	0.000002	0.000006	-4.347333	-76.295212	-3.440507
15263	9.588763	-0.171796	2.300683	0.030791	0.001338	0.049669	1.000000	0.000044	0.000026	0.000022	-4.348304	-76.293998	-3.437819
15264	9.577784	-0.193417	2.304667	0.021301	-0.019405	0.040334	1.000000	0.000028	-0.000010	0.000009	-4.346473	-76.297153	-3.440029
15265	9.563276	-0.189638	2.285363	0.036521	-0.017935	0.021612	1.000000	0.000027	-0.000000	0.000025	-4.352017	-76.299083	-3.434924
15266	9.563264	-0.189634	2.285412	0.036153	-0.018046	0.021613	1.000000	0.000027	0.000004	-0.000013	-4.339551	-76.300779	-3.448234
15267	9.603198	-0.176148	2.320246	0.013733	-0.000684	0.068395	1.000000	0.000039	0.000017	0.000034	-4.346982	-76.300587	-3.436323
15268	9.577668	-0.193966	2.305104	0.019830	-0.019846	0.040336	1.000000	0.000040	0.000008	0.000017	-4.347047	-76.301643	-3.435184
15269	9.577599	-0.194090	2.305383	0.019453	-0.019951	0.040336	1.000000	0.000039	0.000020	0.000014	-4.345594	-76.301400	-3.437448
15270	9.562969	-0.190292	2.286592	0.034677	-0.018486	0.021617	1.000000	0.000025	0.000024	0.000019	-4.347808	-76.300642	-3.435877
15271	9.588353	-0.172964	2.302305	0.027840	0.000459	0.049678	1.000000	0.000032	0.000009	0.000013	-4.347016	-76.301665	-3.436641
15272	9.566382	-0.216080	2.310308	0.009212	-0.040904	0.030996	1.000000	0.000035	0.000027	0.000018	-4.347001	-76.300501	-3.436123
15273	9.577206	-0.194689	2.306961	0.017961	-0.020380	0.040338	1.000000	0.000022	0.000021	0.000006	-4.343670	-76.300161	-3.441950
15274	9.573477	-0.169239	2.284550	0.042320	0.001707	0.030964	1.000000	0.000037	0.000044	0.000009	-4.338792	-76.297188	-3.446299
15275	9.576919	-0.194689	2.308154	0.017215	-0.020595	0.040339	1.000000	0.000034	0.000013	0.000007	-4.334782	-76.297769	-3.447281
15276	9.585994	-0.166241	2.338486	-0.006030	0.011318	0.055811	1.000000	0.000033	0.000025	0.000004	-4.328997	-76.296956	-3.452993
15277	9.571367	-0.162246	2.319717	0.009196	0.012784	0.037096	1.000000	0.000022	0.000021	0.000006	-4.325532	-76.296570	-3.452265
15278	9.540438	-0.147458	2.315527	0.008019	0.027218	0.005793	1.000000	0.000027	0.000028	0.000014	-4.324530	-76.295345	-3.453732
15279	9.576508	-0.194783	2.309850	0.015725	-0.021025	0.040341	1.000000	0.000015	0.000010	0.000005	-4.321769	-76.296291	-3.457798
15280	9.571066	-0.162503	2.320940	0.008084	0.012460	0.037097	1.000000	0.000035	0.000027	0.000018	-4.321756	-76.295126	-3.457280
15281	9.554681	-0.151460	2.335863	-0.008701	0.025332	0.024508	1.000000	0.000064	0.000010	-0.000009	-4.306941	-76.296203	-3.467413
15282	9.574471	-0.187585	2.344692	-0.017401	-0.009943	0.046463	1.000000	0.000022	0.000021	0.000006	-4.303383	-76.295794	-3.472074
15283	9.570822	-0.162138	2.321971	0.006971	0.012139	0.037099	1.000000	0.000034	0.000013	0.000007	-4.299304	-76.296323	-3.473953
15284	9.559795	-0.183661	2.326132	-0.002534	-0.008590	0.027751	1.000000	0.000039	0.000020	0.000014	-4.297724	-76.296035	-3.474643
15285	9.579817	-0.133934	2.352577	-0.016633	0.043952	0.052567	1.000000	0.000045	0.000014	0.000024	-4.300399	-76.296289	-3.467729
15286	9.557842	-0.177135	2.360546	-0.035278	0.002607	0.033868	1.000000	0.000036	0.000015	0.000020	-4.302033	-76.296467	-3.465384
15287	9.586818	-0.173671	2.308634	0.021908	-0.001280	0.049693	1.000000	0.000032	0.000009	0.000013	-4.301103	-76.297418	-3.462899
15288	9.570438	-0.162785	2.323509	0.005141	0.011591	0.037100	1.000000	0.000033	0.000025	0.000004	-4.295318	-76.296603	-3.468613
15289	9.543080	-0.173369	2.342329	-0.020773	0.003850	0.015156	1.000000	0.000039	0.000020	0.000014	-4.293786	-76.296365	-3.468216
15290	9.597467	-0.152489	2.306031	0.029938	0.019006	0.059047	1.000000	0.000011	0.000027	0.000024	-4.299791	-76.295134	-3.464391
15291	9.542828	-0.173917	2.343315	-0.021515	0.003635	0.015154	1.000000	0.000035	0.000027	0.000018	-4.299793	-76.294024	-3.462838
15292	9.573524	-0.188961	2.348441	-0.021098	-0.011022	0.046455	1.000000	0.000028	0.000016	0.000016	-4.300437	-76.294141	-3.462480
15293	9.569867	-0.163665	2.325801	0.003287	0.011048	0.037102	1.000000	0.000019	0.000029	0.000009	-4.298496	-76.292869	-3.466815
15294	9.558792	-0.185217	2.330126	-0.006226	-0.009675	0.027748	1.000000	0.000031	0.000021	0.000010	-4.295927	-76.292519	-3.469492
15295	9.564278	-0.131399	2.337480	-0.004690	0.044435	0.033860	1.000000	0.000038	0.000032	0.000012	-4.292795	-76.290911	-3.475644
15296	9.542267	-0.174588	2.345550	-0.023354	0.003104	0.015150	1.000000	0.000024	0.000007	0.000028	-4.299867	-76.291959	-3.469215
15297	9.594947	-0.146660	2.342709	-0.004658	0.029667	0.065162	1.000000	0.000029	0.000007	0.000000	-4.293197	-76.293370	-3.477127
15298	9.583932	-0.167997	2.346798	-0.014177	0.008948	0.055806	1.000000	0.000036	0.000018	0.000001	-4.285846	-76.293431	-3.484048
15299	9.569324	-0.164041	2.328006	0.001060	0.010398	0.037103	1.000000	0.000027	0.000028	0.000013	-4.284899	-76.292279	-3.490443
15300	9.567402	-0.157324	2.362231	-0.031305	0.021734	0.043205	1.000000	0.000022	0.000019	0.000025	-4.290323	-76.291984	-3.485843
15301	9.556431	-0.167625	2.275792	0.047943	0.000280	0.012301	1.000000	0.000036	0.000015	0.000020	-4.291879	-76.292151	-3.483717
15302	9.572575	-0.190222	2.352207	-0.024816	-0.012091	0.046445	1.000000	0.000028	0.000016	0.000016	-4.292523	-76.292266	-3.483360
15303	9.574276	-0.197397	2.318863	0.006810	-0.023653	0.040345	1.000000	0.000044	0.000026	0.000022	-4.293452	-76.291164	-3.482336
15304	9.568841	-0.165113	2.329916	-0.000773	0.009845	0.037104	1.000000	0.000042	0.000012	0.000011	-4.290306	-76.291751	-3.484235
15305	9.574145	-0.197705	2.319378	0.006077	-0.023876	0.040345	1.000000	0.000027	-0.000000	0.000025	-4.295766	-76.293639	-3.480667
15306	9.557816	-0.187005	2.333986	-0.010664	-0.010978	0.027743	1.000000	0.000032	0.000009	0.000013	-4.294844	-76.294632	-3.481517
15307	9.588548	-0.202048	2.338959	-0.010292	-0.025643	0.059042	1.000000	0.000036	0.000015	0.000020	-4.296451	-76.294859	-3.477191
15308	9.573976	-0.198306	2.320024	0.004962	-0.024206	0.040345	1.000000	0.000028	0.000016	0.000016	-4.297094	-76.294974	-3.476836
15309	9.573913	-0.198451	2.320273	0.004586	-0.024315	0.040345	1.000000	0.000032	0.000009	0.000013	-4.296159	-76.296017	-3.473391
15310	9.562891	-0.219984	2.324349	-0.004948	-0.045026	0.030981	1.000000	0.000042	0.000012	0.000011	-4.293012	-76.296604	-3.475293
15311	9.573795	-0.198642	2.320744	0.003843	-0.024530	0.040344	1.000000	0.000010	0.000013	0.000014	-4.294994	-76.297092	-3.476283
15312	9.559241	-0.194827	2.301749	0.019100	-0.023096	0.021650	1.000000	0.000042	0.000012	0.000011	-4.291847	-76.297679	-3.478185
15313	9.584618	-0.177323	2.317473	0.012275	-0.004147	0.049709	1.000000	0.000022	0.000021	0.000006	-4.288402	-76.297250	-3.482988
15314	9.557288	-0.187708	2.336089	-0.013625	-0.011840	0.027738	1.000000	0.000043	0.000003	-0.000005	-4.277917	-76.299066	-3.492326
15315	9.584507	-0.177071	2.317954	0.011537	-0.004361	0.049710	1.000000	0.000031	0.000021	0.000010	-4.275525	-76.298727	-3.497436
15316	9.584407	-0.177129	2.318360	0.011169	-0.004472	0.049710	1.000000	0.000031	0.000021	0.000010	-4.272951	-76.298376	-3.500120
15317	9.580793	-0.151767	2.295652	0.035608	0.017557	0.040387	1.000000	0.000022	0.000021	0.000006	-4.269497	-76.297944	-3.503547
15318	9.567911	-0.166320	2.333645	-0.005921	0.008333	0.037103	1.000000	0.000028	0.000016	0.000016	-4.270139	-76.298059	-3.503194
15319	9.609558	-0.159874	2.334993	0.003599	0.014264	0.077770	1.000000	0.000046	0.000031	0.000016	-4.268052	-76.296555	-3.504195
15320	9.573030	-0.199126	2.323852	0.000511	-0.025495	0.040343	1.000000	0.000024	0.000007	0.000028	-4.275125	-76.297601	-3.497767
15321	9.564130	-0.141461	2.311602	0.017775	0.030147	0.027783	1.000000	0.000036	0.000018	0.000001	-4.267953	-76.297688	-3.508303
15322	9.569361	-0.173935	2.301379	0.024581	-0.003581	0.031024	1.000000	0.000025	0.000024	0.000019	-4.270159	-76.296925	-3.506746
15323	9.583736	-0.178045	2.321064	0.008575	-0.005224	0.049712	1.000000	0.000039	0.000020	0.000014	-4.268605	-76.296652	-3.502426
15324	9.583639	-0.178142	2.321457	0.008207	-0.005334	0.049713	1.000000	0.000039	0.000020	0.000014	-4.267022	-76.296360	-3.503125
15325	9.592683	-0.149831	2.351764	-0.014967	0.026649	0.065160	1.000000	0.000025	0.000024	0.000019	-4.269378	-76.295619	-3.505007
15326	9.583425	-0.178497	2.322311	0.007466	-0.005548	0.049713	1.000000	0.000039	0.000020	0.000014	-4.267795	-76.295326	-3.505706
15327	9.579814	-0.153246	2.299636	0.031920	0.016462	0.040401	1.000000	0.000035	0.000027	0.000018	-4.267881	-76.294169	-3.507734
15328	9.594187	-0.157392	2.319312	0.015914	0.014822	0.059087	1.000000	0.000045	0.000014	0.000024	-4.270505	-76.294402	-3.503410
15329	9.555857	-0.189526	2.341792	-0.019171	-0.013419	0.027727	1.000000	0.000032	0.000009	0.000013	-4.269673	-76.295403	-3.508477
15330	9.579526	-0.153666	2.300807	0.030820	0.016129	0.040405	1.000000	0.000020	0.000045	0.000001	-4.262801	-76.292303	-3.516817
15331	9.557426	-0.196711	2.309115	0.012062	-0.025146	0.021656	1.000000	0.000034	0.000011	0.000026	-4.267735	-76.292995	-3.513321
15332	9.577470	-0.147057	2.335442	-0.001900	0.027426	0.046476	1.000000	0.000025	0.000024	0.000019	-4.269938	-76.292230	-3.511767
15333	9.566358	-0.168686	2.339833	-0.011471	0.006741	0.037100	1.000000	0.000019	0.000029	0.000009	-4.268034	-76.291014	-3.517779
15334	9.553395	-0.183203	2.378018	-0.053010	-0.002425	0.033788	1.000000	0.000027	0.000028	0.000013	-4.267023	-76.289783	-3.519262
15335	9.549775	-0.157955	2.355412	-0.028524	0.019572	0.024483	1.000000	0.000027	0.000028	0.000013	-4.266047	-76.288493	-3.524188
15336	9.551511	-0.165202	2.322081	0.003085	0.007935	0.018419	1.000000	0.000045	0.000014	0.000024	-4.268671	-76.288724	-3.519865
15337	9.565846	-0.169455	2.341869	-0.012931	0.006306	0.037098	1.000000	0.000018	0.000038	0.000026	-4.273961	-76.286212	-3.511762
15338	9.580194	-0.173631	2.361601	-0.028945	0.004679	0.055776	1.000000	0.000032	0.000009	0.000013	-4.273042	-76.287202	-3.512613
15339	9.596469	-0.184779	2.347261	-0.012992	-0.008481	0.068393	1.000000	0.000029	0.000004	0.000019	-4.275304	-76.288686	-3.506187
15340	9.554650	-0.191557	2.346546	-0.023237	-0.014599	0.027717	1.000000	0.000036	0.000015	0.000020	-4.276937	-76.288857	-3.503851
15341	9.578421	-0.156066	2.305242	0.026764	0.014913	0.040419	1.000000	0.000032	0.000006	0.000032	-4.285029	-76.289992	-3.493537
15342	9.581830	-0.181761	2.328631	0.001546	-0.007291	0.049715	1.000000	0.000028	0.000016	0.000016	-4.285670	-76.290104	-3.493188
15343	9.565467	-0.170983	2.343305	-0.015144	0.005654	0.037095	1.000000	0.000029	0.000004	0.000019	-4.287967	-76.291561	-3.490895
15344	9.581697	-0.182171	2.329148	0.000809	-0.007510	0.049715	1.000000	0.000035	0.000027	0.000018	-4.287943	-76.290389	-3.490397
15345	9.578178	-0.156873	2.306194	0.025299	0.014469	0.040423	1.000000	0.000038	-0.000006	0.000007	-4.283915	-76.293124	-3.492783
15346	9.581605	-0.182225	2.329520	0.000074	-0.007729	0.049715	1.000000	0.000022	0.000021	0.000006	-4.280345	-76.292711	-3.497461
15347	9.599639	-0.200486	2.281817	0.047992	-0.032440	0.056284	1.000000	0.000030	0.000030	0.000027	-4.285041	-76.291149	-3.486605
15348	9.525170	-0.185207	2.310153	0.005123	-0.012438	-0.009637	1.000000	0.000019	0.000003	0.000002	-4.280578	-76.292898	-3.492632
15349	9.574437	-0.131834	2.284164	0.048675	0.036116	0.031141	1.000000	0.000034	0.000013	0.000007	-4.276458	-76.293486	-3.491115
15350	9.583128	-0.189652	2.297109	0.030558	-0.019714	0.043666	1.000000	0.000031	0.000021	0.000010	-4.273881	-76.293133	-3.493806
15351	9.555737	-0.200285	2.315787	0.004668	-0.027336	0.021657	1.000000	0.000026	0.000012	0.000022	-4.277775	-76.293714	-3.491229
15352	9.575793	-0.150432	2.342094	-0.009257	0.025247	0.046477	1.000000	0.000033	0.000025	0.000004	-4.271980	-76.292895	-3.496958
15353	9.581057	-0.182817	2.331727	-0.002523	-0.008495	0.049714	1.000000	0.000038	-0.000006	0.000007	-4.267936	-76.295660	-3.497750
15354	9.570010	-0.204368	2.335807	-0.012100	-0.029175	0.040325	1.000000	0.000025	0.000024	0.000019	-4.270134	-76.294893	-3.496204
15355	9.593780	-0.168695	2.294627	0.037922	0.000301	0.053059	1.000000	0.000034	0.000013	0.000007	-4.266023	-76.295399	-3.498691
15356	9.580858	-0.183047	2.332527	-0.003626	-0.008823	0.049713	1.000000	0.000042	0.000012	0.000011	-4.262879	-76.295983	-3.500596
15357	9.566322	-0.179162	2.313579	0.011658	-0.007421	0.031046	1.000000	0.000022	0.000021	0.000006	-4.259380	-76.295629	-3.505646
15358	9.566260	-0.179307	2.313827	0.011290	-0.007531	0.031046	1.000000	0.000037	0.000003	0.000023	-4.262671	-76.297142	-3.501473
15359	9.582484	-0.190474	2.299726	0.027219	-0.020708	0.043673	1.000000	0.000038	0.000032	0.000012	-4.259471	-76.295551	-3.502172
15360	9.582370	-0.190630	2.300185	0.026850	-0.020819	0.043674	1.000000	0.000045	0.000014	0.000024	-4.262097	-76.295780	-3.497851
15361	9.562571	-0.154269	2.291619	0.035056	0.014214	0.021775	1.000000	0.000043	0.000003	-0.000005	-4.251696	-76.297618	-3.506270
15362	9.576929	-0.158109	2.311291	0.019023	0.012598	0.040440	1.000000	0.000015	0.000036	0.000012	-4.251240	-76.295447	-3.508554
15363	9.593118	-0.169315	2.297349	0.034943	-0.000582	0.053070	1.000000	0.000036	0.000015	0.000020	-4.252933	-76.295690	-3.504593
15364	9.560412	-0.147474	2.326557	0.001979	0.025454	0.027813	1.000000	0.000020	0.000017	0.000012	-4.252577	-76.295741	-3.506238
15365	9.576633	-0.158567	2.312487	0.017900	0.012271	0.040443	1.000000	0.000022	0.000021	0.000006	-4.249026	-76.295388	-3.510053
15366	9.581837	-0.191057	2.302370	0.024610	-0.021478	0.043678	1.000000	0.000030	0.000021	0.000010	-4.246446	-76.295033	-3.512747
15367	9.543788	-0.136668	2.342257	-0.015435	0.038210	0.015183	1.000000	0.000027	0.000028	0.000013	-4.245521	-76.293885	-3.516145
15368	9.565272	-0.180288	2.317831	0.007564	-0.008618	0.031049	1.000000	0.000035	0.000027	0.000018	-4.245494	-76.292710	-3.515652
15369	9.579600	-0.184318	2.337590	-0.008479	-0.010224	0.049709	1.000000	0.000039	0.000020	0.000014	-4.243972	-76.292434	-3.517813
15370	9.590524	-0.163185	2.334014	0.000376	0.010226	0.059106	1.000000	0.000020	0.000015	0.000031	-4.252602	-76.292595	-3.510195
15371	9.548655	-0.169922	2.333460	-0.009843	0.004142	0.018417	1.000000	0.000033	0.000025	0.000004	-4.246869	-76.291851	-3.516873
15372	9.581187	-0.192045	2.304991	0.022362	-0.022137	0.043682	1.000000	0.000036	0.000015	0.000020	-4.248501	-76.292020	-3.514541
15373	9.590238	-0.163621	2.335160	-0.000748	0.009902	0.059106	1.000000	0.000030	0.000021	0.000010	-4.245956	-76.291712	-3.514707
15374	9.579132	-0.185192	2.339436	-0.010343	-0.010764	0.049706	1.000000	0.000036	0.000015	0.000020	-4.247588	-76.291881	-3.512376
15375	9.559296	-0.149061	2.331037	-0.002097	0.024266	0.027816	1.000000	0.000017	0.000024	0.000015	-4.248828	-76.291095	-3.512134
15376	9.580806	-0.192908	2.306504	0.020872	-0.022576	0.043685	1.000000	0.000047	0.000017	0.000038	-4.257224	-76.290968	-3.501591
15377	9.564357	-0.182212	2.321451	0.004217	-0.009596	0.031050	1.000000	0.000015	0.000036	0.000012	-4.256787	-76.288828	-3.504846
15378	9.578675	-0.186358	2.341214	-0.011831	-0.011196	0.049704	1.000000	0.000034	0.000011	0.000026	-4.261636	-76.289461	-3.499478
15379	9.565690	-0.200842	2.379179	-0.053411	-0.020251	0.046318	1.000000	0.000030	0.000021	0.000010	-4.259138	-76.289241	-3.500865
15380	9.564054	-0.182846	2.322653	0.003090	-0.009920	0.031050	1.000000	0.000033	0.000023	0.000023	-4.262325	-76.288530	-3.497339
15381	9.552923	-0.204450	2.327006	-0.006512	-0.030578	0.021646	1.000000	0.000030	0.000021	0.000010	-4.259828	-76.288176	-3.499448
15382	9.563837	-0.183018	2.323530	0.002354	-0.010136	0.031050	1.000000	0.000033	0.000025	0.000004	-4.254031	-76.287355	-3.505182
15383	9.563764	-0.182938	2.323839	0.001980	-0.010240	0.031050	1.000000	0.000037	0.000006	0.000004	-4.248462	-76.288794	-3.512377
15384	9.578112	-0.186863	2.343475	-0.014072	-0.011836	0.049700	1.000000	0.000035	0.000027	0.000017	-4.248432	-76.287618	-3.511890
15385	9.566968	-0.208381	2.347883	-0.023697	-0.032484	0.040294	1.000000	0.000022	0.000021	0.000006	-4.245027	-76.287295	-3.518969
15386	9.577876	-0.187212	2.344415	-0.014826	-0.012045	0.049699	1.000000	0.000027	0.000026	0.000032	-4.252985	-76.286169	-3.511212
15387	9.563340	-0.183485	2.325541	0.000493	-0.010666	0.031050	1.000000	0.000028	0.000019	-0.000003	-4.244754	-76.286165	-3.519664
15388	9.563274	-0.183448	2.325812	0.000125	-0.010776	0.031049	1.000000	0.000032	0.000009	0.000013	-4.243837	-76.287151	-3.520519
15389	9.559812	-0.158107	2.302840	0.024678	0.011148	0.021810	1.000000	0.000028	0.000019	-0.000003	-4.235625	-76.287211	-3.527746
15390	9.588598	-0.165851	2.341726	-0.007066	0.008075	0.059105	1.000000	0.000040	0.000008	0.000017	-4.235702	-76.288256	-3.526614
15391	9.579404	-0.194629	2.312176	0.015258	-0.024199	0.043691	1.000000	0.000036	0.000015	0.000020	-4.237461	-76.288507	-3.523128
15392	9.546684	-0.172729	2.341306	-0.017630	0.001908	0.018406	1.000000	0.000028	0.000016	0.000016	-4.238097	-76.288615	-3.522789
15393	9.590291	-0.173557	2.308803	0.023752	-0.003870	0.053102	1.000000	0.000032	0.000009	0.000013	-4.237379	-76.289686	-3.525957
15394	9.562895	-0.184033	2.327325	-0.002121	-0.011411	0.031049	1.000000	0.000032	0.000009	0.000013	-4.236460	-76.290672	-3.526814
15395	9.573853	-0.162676	2.323685	0.006739	0.009028	0.040460	1.000000	0.000022	0.000021	0.000006	-4.233030	-76.290382	-3.530378
15396	9.564611	-0.191413	2.294346	0.029069	-0.023261	0.025049	1.000000	0.000025	0.000024	0.000019	-4.235221	-76.289611	-3.528844
15397	9.589958	-0.174047	2.310150	0.022249	-0.004301	0.053106	1.000000	0.000039	0.000020	0.000014	-4.233786	-76.289362	-3.529290
15398	9.559146	-0.159199	2.305526	0.021325	0.010178	0.021819	1.000000	0.000023	0.000010	0.000009	-4.231872	-76.290290	-3.532136
15399	9.604242	-0.178150	2.330009	0.005812	-0.005991	0.071749	1.000000	0.000036	0.000015	0.000020	-4.233620	-76.290478	-3.530520
15400	9.560916	-0.166618	2.272348	0.052534	-0.001686	0.015826	1.000000	0.000026	0.000014	0.000003	-4.228488	-76.290941	-3.536405
15401	9.589642	-0.174337	2.311441	0.020755	-0.004734	0.053109	1.000000	0.000029	0.000033	0.000007	-4.224381	-76.289341	-3.539810
15402	9.584203	-0.141864	2.322528	0.013397	0.028812	0.049878	1.000000	0.000029	0.000033	0.000007	-4.220137	-76.287640	-3.544353
15403	9.547616	-0.180925	2.311492	0.010195	-0.010891	0.012407	1.000000	0.000048	0.000007	0.000021	-4.221376	-76.288865	-3.541265
15404	9.573001	-0.163682	2.327123	0.003386	0.008065	0.040463	1.000000	0.000031	0.000018	0.000029	-4.227780	-76.288616	-3.534707
15405	9.583926	-0.142544	2.323628	0.012277	0.028492	0.049880	1.000000	0.000027	0.000028	0.000013	-4.226841	-76.287391	-3.536453
15406	9.558376	-0.160330	2.308637	0.018352	0.009316	0.021826	1.000000	0.000034	0.000011	0.000026	-4.231691	-76.288021	-3.531089
15407	9.572684	-0.164556	2.328365	0.002264	0.007748	0.040463	1.000000	0.000029	0.000030	0.000026	-4.236610	-76.286546	-3.527152
15408	9.588927	-0.175831	2.314291	0.018134	-0.005491	0.053113	1.000000	0.000035	0.000001	0.000010	-4.234141	-76.288410	-3.529202
15409	9.561534	-0.186240	2.332737	-0.007741	-0.012998	0.031044	1.000000	0.000032	0.000009	0.000013	-4.233296	-76.289437	-3.529211
15410	9.547050	-0.182438	2.313710	0.007596	-0.011644	0.012409	1.000000	0.000022	0.000022	0.000006	-4.229716	-76.289020	-3.533904
15411	9.603144	-0.179931	2.334394	0.001305	-0.007278	0.071749	1.000000	0.000028	0.000016	0.000016	-4.230447	-76.289189	-3.534099
15412	9.574257	-0.172471	2.296011	0.032349	-0.004465	0.034482	1.000000	0.000034	0.000011	0.000026	-4.235297	-76.289818	-3.528735
15413	9.591955	-0.201871	2.338892	-0.008712	-0.028022	0.062327	1.000000	0.000028	0.000016	0.000016	-4.236017	-76.289989	-3.527126
15414	9.566438	-0.219583	2.323766	-0.002642	-0.047197	0.034272	1.000000	0.000040	0.000008	0.000017	-4.236097	-76.291032	-3.525994
15415	9.572176	-0.165875	2.330360	-0.000720	0.006893	0.040464	1.000000	0.000029	0.000004	0.000019	-4.238605	-76.292592	-3.523507
15416	9.577369	-0.198569	2.320254	0.005869	-0.026881	0.043694	1.000000	0.000035	0.000027	0.000017	-4.238569	-76.291413	-3.523030
15417	9.560928	-0.187577	2.335110	-0.010751	-0.013842	0.031040	1.000000	0.000022	0.000022	0.000006	-4.235175	-76.291142	-3.526439
15418	9.588174	-0.177268	2.317302	0.014377	-0.006568	0.053119	1.000000	0.000029	0.000033	0.000007	-4.230923	-76.289440	-3.530991
15419	9.575100	-0.191482	2.355384	-0.027214	-0.015509	0.049668	1.000000	0.000023	0.000010	0.000009	-4.229170	-76.290456	-3.533156
15420	9.560623	-0.187686	2.336351	-0.011870	-0.014161	0.031038	1.000000	0.000030	0.000021	0.000010	-4.226585	-76.290097	-3.535861
15421	9.562456	-0.195039	2.303009	0.019685	-0.025949	0.025066	1.000000	0.000028	0.000016	0.000016	-4.227458	-76.290265	-3.535986
15422	9.569570	-0.159302	2.366812	-0.035274	0.017845	0.046435	1.000000	0.000039	0.000020	0.000014	-4.225871	-76.289965	-3.536701
15423	9.563715	-0.213303	2.360659	-0.037994	-0.036440	0.040235	1.000000	0.000032	0.000009	0.000013	-4.225176	-76.291042	-3.538004
15424	9.571332	-0.166740	2.333763	-0.004090	0.005945	0.040464	1.000000	0.000019	0.000029	0.000009	-4.223145	-76.289745	-3.541509
15425	9.545761	-0.184383	2.318870	0.001958	-0.013221	0.012409	1.000000	0.000039	0.000020	0.000014	-4.221798	-76.289582	-3.540195
15426	9.571152	-0.166856	2.334492	-0.004848	0.005737	0.040464	1.000000	0.000045	0.000005	0.000008	-4.217109	-76.291040	-3.543294
15427	9.590764	-0.203272	2.343650	-0.014009	-0.029485	0.062317	1.000000	0.000028	0.000016	0.000016	-4.217875	-76.291180	-3.543022
15428	9.554709	-0.155965	2.349318	-0.021799	0.018677	0.027804	1.000000	0.000032	0.000009	0.000013	-4.216958	-76.292164	-3.543882
15429	9.587309	-0.178394	2.320792	0.010241	-0.007729	0.053123	1.000000	0.000034	0.000011	0.000026	-4.222028	-76.292866	-3.538811
15430	9.570914	-0.167576	2.335417	-0.006335	0.005316	0.040463	1.000000	0.000036	0.000015	0.000020	-4.223660	-76.293029	-3.536489
15431	9.585284	-0.171697	2.354836	-0.022443	0.003767	0.059085	1.000000	0.000038	-0.000009	0.000026	-4.228785	-76.295986	-3.527154
15432	9.589102	-0.186343	2.287608	0.041046	-0.019763	0.047164	1.000000	0.000033	0.000025	0.000004	-4.222976	-76.295163	-3.532905
15433	9.556344	-0.164144	2.316769	0.008267	0.006450	0.021842	1.000000	0.000039	0.000020	0.000014	-4.221609	-76.294872	-3.534246
15434	9.592201	-0.211981	2.311859	0.015295	-0.041937	0.056353	1.000000	0.000013	0.000030	0.000037	-4.233332	-76.293266	-3.524264
15435	9.583523	-0.154535	2.299258	0.033018	0.013588	0.043940	1.000000	0.000045	0.000005	0.000008	-4.228776	-76.294757	-3.524958
15436	9.575722	-0.201176	2.326819	-0.001652	-0.028991	0.043690	1.000000	0.000030	0.000021	0.000010	-4.226188	-76.294398	-3.527669
15437	9.572297	-0.175995	2.303902	0.022977	-0.007133	0.034507	1.000000	0.000030	0.000021	0.000010	-4.223917	-76.294142	-3.530324
15438	9.566936	-0.143523	2.314685	0.015702	0.026430	0.031280	1.000000	0.000022	0.000022	0.000006	-4.220330	-76.293724	-3.535026
15439	9.597508	-0.158569	2.320267	0.015800	0.011721	0.062563	1.000000	0.000042	0.000039	0.000019	-4.219754	-76.291281	-3.531005
15440	9.560862	-0.197569	2.309400	0.012579	-0.027969	0.025072	1.000000	0.000026	0.000014	0.000003	-4.214618	-76.291743	-3.536896
15441	9.553587	-0.158003	2.353742	-0.026627	0.017334	0.027794	1.000000	0.000020	0.000015	0.000031	-4.223471	-76.291960	-3.530663
15442	9.566517	-0.144071	2.316382	0.014224	0.026004	0.031283	1.000000	0.000036	0.000018	0.000001	-4.216114	-76.292016	-3.537603
15443	9.604325	-0.198822	2.277784	0.053140	-0.034114	0.059845	1.000000	0.000027	0.000028	0.000013	-4.215199	-76.290778	-3.537054
15444	9.553304	-0.158292	2.354872	-0.027726	0.017015	0.027792	1.000000	0.000032	0.000009	0.000013	-4.214283	-76.291761	-3.537914
15445	9.566259	-0.144351	2.317433	0.013124	0.025687	0.031286	1.000000	0.000036	0.000015	0.000020	-4.216125	-76.291942	-3.536184
15446	9.593031	-0.220612	2.282673	0.042727	-0.054952	0.050409	1.000000	0.000034	0.000013	0.000007	-4.211988	-76.292461	-3.540085
15447	9.569445	-0.169745	2.341273	-0.012669	0.003537	0.040458	1.000000	0.000040	0.000008	0.000017	-4.212291	-76.293671	-3.536659
15448	9.585656	-0.180986	2.327407	0.003149	-0.009746	0.053126	1.000000	0.000026	0.000040	0.000010	-4.209578	-76.291088	-3.540035
15449	9.585523	-0.181319	2.327928	0.002774	-0.009847	0.053126	1.000000	0.000036	0.000013	0.000039	-4.220407	-76.291398	-3.527217
15450	9.571066	-0.177709	2.308882	0.018142	-0.008524	0.034516	1.000000	0.000036	0.000018	0.000001	-4.213050	-76.291453	-3.534159
15451	9.559864	-0.199149	2.313391	0.008460	-0.029127	0.025073	1.000000	0.000032	0.000035	0.000020	-4.214792	-76.289466	-3.531730
15452	9.585174	-0.181843	2.329325	0.001655	-0.010166	0.053126	1.000000	0.000025	0.000024	0.000019	-4.216972	-76.288690	-3.530215
15453	9.559611	-0.199535	2.314404	0.007693	-0.029334	0.025073	1.000000	0.000022	0.000022	0.000006	-4.213655	-76.288442	-3.535029
15454	9.557553	-0.192266	2.348506	-0.024594	-0.017692	0.031009	1.000000	0.000030	0.000021	0.000010	-4.211068	-76.288082	-3.537742
15455	9.543079	-0.188654	2.329538	-0.009235	-0.016363	0.012400	1.000000	0.000022	0.000019	0.000025	-4.216660	-76.287849	-3.531701
15456	9.584747	-0.182511	2.331032	0.000137	-0.010584	0.053126	1.000000	0.000035	0.000027	0.000017	-4.216618	-76.286667	-3.531235
15457	9.540884	-0.181708	2.364158	-0.041887	-0.004816	0.018332	1.000000	0.000022	0.000022	0.000006	-4.213213	-76.286252	-3.534617
15458	9.568198	-0.171560	2.346230	-0.016773	0.002389	0.040452	1.000000	0.000055	0.000018	0.000023	-4.213625	-76.286064	-3.531356
15459	9.559006	-0.200362	2.316831	0.005447	-0.029964	0.025072	1.000000	0.000015	0.000010	0.000005	-4.211007	-76.287048	-3.535519
15460	9.571344	-0.196791	2.370165	-0.042582	-0.019736	0.049606	1.000000	0.000028	0.000019	-0.000003	-4.202653	-76.287045	-3.544450
15461	9.553615	-0.167820	2.327736	-0.002157	0.003511	0.021846	1.000000	0.000026	0.000012	0.000022	-4.206725	-76.287656	-3.539973
15462	9.569884	-0.179112	2.313665	0.013644	-0.009788	0.034522	1.000000	0.000034	0.000013	0.000007	-4.202590	-76.288175	-3.543874
15463	9.567846	-0.171727	2.347652	-0.018643	0.001884	0.040449	1.000000	0.000044	0.000017	0.000005	-4.196564	-76.288325	-3.550555
15464	9.584117	-0.183041	2.333578	-0.002846	-0.011418	0.053125	1.000000	0.000023	0.000007	0.000028	-4.203637	-76.289354	-3.544149
15465	9.595148	-0.162011	2.329770	0.006088	0.008979	0.062576	1.000000	0.000018	0.000013	0.000018	-4.206821	-76.289940	-3.545976
15466	9.555252	-0.175972	2.295350	0.027902	-0.008785	0.015923	1.000000	0.000055	0.000018	0.000023	-4.207234	-76.289751	-3.542716
15467	9.583877	-0.183829	2.334502	-0.003983	-0.011720	0.053124	1.000000	0.000025	0.000024	0.000019	-4.209667	-76.289076	-3.539596
15468	9.569415	-0.180249	2.315519	0.011399	-0.010412	0.034524	1.000000	0.000036	0.000015	0.000020	-4.211300	-76.289235	-3.537279
15469	9.569325	-0.180389	2.315878	0.011019	-0.010512	0.034525	1.000000	0.000030	0.000021	0.000010	-4.208956	-76.288945	-3.540056
15470	9.596668	-0.170354	2.297879	0.036128	-0.003335	0.056659	1.000000	0.000026	0.000012	0.000022	-4.212808	-76.289511	-3.536691
15471	9.554776	-0.176931	2.297256	0.026020	-0.009308	0.015928	1.000000	0.000037	0.000032	0.000011	-4.209760	-76.287960	-3.538870
15472	9.594482	-0.163223	2.332426	0.003467	0.008240	0.062578	1.000000	0.000042	0.000012	0.000011	-4.206627	-76.288536	-3.540780
15473	9.568941	-0.180923	2.317425	0.009542	-0.010932	0.034526	1.000000	0.000025	0.000024	0.000019	-4.209081	-76.287692	-3.540059
15474	9.566857	-0.173748	2.351531	-0.022733	0.000752	0.040440	1.000000	0.000039	0.000020	0.000014	-4.207492	-76.287387	-3.540784
15475	9.568762	-0.181202	2.318141	0.008798	-0.011143	0.034526	1.000000	0.000031	0.000009	0.000013	-4.206803	-76.288410	-3.543390
15476	9.566729	-0.173893	2.352040	-0.023475	0.000546	0.040439	1.000000	0.000034	0.000013	0.000007	-4.202669	-76.288928	-3.547292
15477	9.608443	-0.167581	2.353391	-0.014129	0.006312	0.081173	1.000000	0.000028	0.000016	0.000016	-4.203549	-76.289050	-3.548446
15478	9.570506	-0.188848	2.285418	0.039593	-0.023268	0.028617	1.000000	0.000027	0.000028	0.000013	-4.202503	-76.287808	-3.549980
15479	9.579523	-0.160316	2.315472	0.016646	0.008917	0.043987	1.000000	0.000018	0.000013	0.000018	-4.205574	-76.288361	-3.548901
15480	9.563090	-0.149363	2.330160	0.000138	0.022021	0.031303	1.000000	0.000035	0.000027	0.000017	-4.205528	-76.287176	-3.548443
15481	9.568227	-0.182125	2.320275	0.006584	-0.011773	0.034527	1.000000	0.000018	0.000013	0.000018	-4.208658	-76.287648	-3.545409
15482	9.566162	-0.174940	2.354270	-0.025685	-0.000070	0.040433	1.000000	0.000039	0.000020	0.000014	-4.207069	-76.287342	-3.546135
15483	9.593509	-0.164905	2.336307	-0.000579	0.007091	0.062580	1.000000	0.000036	0.000015	0.000020	-4.208908	-76.287498	-3.544043
15484	9.556902	-0.204063	2.325173	-0.003857	-0.032572	0.025065	1.000000	0.000029	0.000004	0.000019	-4.211218	-76.288941	-3.541863
15485	9.562683	-0.150307	2.331767	-0.001688	0.021504	0.031304	1.000000	0.000046	0.000031	0.000016	-4.209219	-76.287373	-3.544039
15486	9.598475	-0.197912	2.327107	0.005107	-0.026925	0.065803	1.000000	0.000030	0.000021	0.000010	-4.206628	-76.287010	-3.546759
15487	9.556596	-0.204432	2.326398	-0.004978	-0.032877	0.025063	1.000000	0.000036	0.000015	0.000020	-4.208521	-76.287224	-3.544201
15488	9.553240	-0.179578	2.303431	0.019761	-0.011113	0.015941	1.000000	0.000037	0.000030	0.000030	-4.214238	-76.285677	-3.537532
15489	9.583808	-0.194701	2.308999	0.019747	-0.025837	0.047216	1.000000	0.000036	0.000018	0.000001	-4.207102	-76.285778	-3.544021
15490	9.567397	-0.183577	2.323582	0.003250	-0.012721	0.034528	1.000000	0.000018	0.000013	0.000018	-4.209951	-76.286284	-3.542652
15491	9.552980	-0.180021	2.304474	0.018641	-0.011421	0.015942	1.000000	0.000036	0.000015	0.000020	-4.211892	-76.286505	-3.539460
15492	9.581569	-0.187861	2.343634	-0.013268	-0.014323	0.053112	1.000000	0.000025	0.000024	0.000019	-4.214063	-76.285724	-3.537959
15493	9.567143	-0.184222	2.324574	0.002111	-0.013023	0.034528	1.000000	0.000023	0.000010	0.000009	-4.212459	-76.286791	-3.539643
15494	9.567095	-0.184291	2.324766	0.001742	-0.013132	0.034528	1.000000	0.000023	0.000010	0.000009	-4.210546	-76.287713	-3.542497
15495	9.578161	-0.163038	2.320912	0.010725	0.007240	0.043996	1.000000	0.000040	0.000008	0.000017	-4.210965	-76.288733	-3.542168
15496	9.552618	-0.180721	2.305921	0.016782	-0.011947	0.015945	1.000000	0.000019	0.000029	0.000009	-4.208910	-76.287432	-3.545702
15497	9.566848	-0.184492	2.325768	0.000620	-0.013439	0.034527	1.000000	0.000036	0.000018	0.000001	-4.201756	-76.287610	-3.551825
15498	9.561548	-0.151997	2.336306	-0.006514	0.020156	0.031305	1.000000	0.000018	0.000013	0.000018	-4.204605	-76.288114	-3.550457
15499	9.583029	-0.195915	2.312124	0.015997	-0.026882	0.047220	1.000000	0.000030	0.000021	0.000010	-4.202329	-76.287757	-3.553691
15500	9.535932	-0.169742	2.321612	-0.000823	0.000873	0.003253	1.000000	0.000034	0.000013	0.000007	-4.198196	-76.288274	-3.557594
15501	9.566519	-0.184876	2.327092	-0.000876	-0.013852	0.034527	1.000000	0.000033	0.000023	0.000023	-4.201625	-76.287680	-3.553512
15502	9.577545	-0.163677	2.323405	0.008111	0.006503	0.043999	1.000000	0.000042	0.000012	0.000011	-4.198495	-76.288253	-3.555423
15503	9.566385	-0.185163	2.327619	-0.001632	-0.014057	0.034526	1.000000	0.000029	0.000004	0.000019	-4.201118	-76.289812	-3.551764
15504	9.561085	-0.152842	2.338145	-0.008752	0.019541	0.031305	1.000000	0.000051	0.000026	0.000026	-4.203074	-76.288738	-3.547328
15505	9.577318	-0.164103	2.324311	0.006975	0.006199	0.044000	1.000000	0.000036	0.000018	0.000001	-4.195997	-76.288876	-3.553699
15506	9.555007	-0.206876	2.332701	-0.012110	-0.034834	0.025050	1.000000	0.000018	0.000013	0.000018	-4.198846	-76.289381	-3.552333
15507	9.546492	-0.149349	2.319796	0.005912	0.020618	0.012729	1.000000	0.000039	0.000020	0.000014	-4.197458	-76.289111	-3.553163
15508	9.567962	-0.193266	2.295678	0.028392	-0.026449	0.028647	1.000000	0.000028	0.000016	0.000016	-4.198086	-76.289209	-3.552846
15509	9.569062	-0.211180	2.353182	-0.029013	-0.036522	0.043622	1.000000	0.000016	0.000025	0.000015	-4.199533	-76.288411	-3.549971
15510	9.576874	-0.164885	2.326087	0.005125	0.005670	0.044002	1.000000	0.000028	0.000016	0.000016	-4.200162	-76.288510	-3.549654
15511	9.576799	-0.164927	2.326392	0.004748	0.005572	0.044002	1.000000	0.000018	0.000015	-0.000001	-4.194283	-76.288967	-3.556522
15512	9.565601	-0.186322	2.330747	-0.004983	-0.014996	0.034524	1.000000	0.000028	0.000016	0.000016	-4.194911	-76.289065	-3.556206
15513	9.587749	-0.143837	2.323040	0.013383	0.025819	0.053481	1.000000	0.000025	0.000024	0.000019	-4.197317	-76.288250	-3.553799
15514	9.565400	-0.186596	2.331549	-0.005714	-0.015205	0.034523	1.000000	0.000036	0.000018	0.000001	-4.189960	-76.288304	-3.560746
15515	9.578458	-0.172702	2.294179	0.035162	-0.006723	0.038133	1.000000	0.000028	0.000016	0.000016	-4.190937	-76.288434	-3.561314
15516	9.562043	-0.161546	2.308730	0.018701	0.006422	0.025433	1.000000	0.000026	0.000014	0.000003	-4.185799	-76.288893	-3.567213
15517	9.579485	-0.190478	2.351929	-0.022611	-0.016888	0.053091	1.000000	0.000039	0.000020	0.000014	-4.184343	-76.288561	-3.568444
15518	9.550730	-0.183133	2.313536	0.008602	-0.014248	0.015953	1.000000	0.000041	0.000022	0.000027	-4.188519	-76.287891	-3.562963
15519	9.563774	-0.169608	2.276229	0.049482	-0.005781	0.019569	1.000000	0.000030	0.000018	0.000029	-4.195172	-76.287652	-3.555763
15520	9.575998	-0.166164	2.329598	0.001442	0.004623	0.044004	1.000000	0.000042	0.000012	0.000011	-4.192043	-76.288223	-3.557675
15521	9.577965	-0.173681	2.296161	0.032941	-0.007368	0.038140	1.000000	0.000031	0.000009	0.000013	-4.191353	-76.289280	-3.558462
15522	9.564725	-0.187877	2.334216	-0.008680	-0.016037	0.034520	1.000000	0.000027	0.000026	0.000032	-4.199284	-76.288134	-3.550756
15523	9.564635	-0.188178	2.334559	-0.009048	-0.016137	0.034519	1.000000	0.000031	0.000009	0.000013	-4.198604	-76.289111	-3.550434
15524	9.577709	-0.174471	2.297170	0.031837	-0.007693	0.038143	1.000000	0.000025	0.000024	0.000019	-4.200768	-76.288327	-3.548943
15525	9.566486	-0.196098	2.301581	0.022090	-0.028246	0.028659	1.000000	0.000026	0.000012	0.000022	-4.204821	-76.288902	-3.546641
15526	9.564379	-0.188820	2.335553	-0.010156	-0.016455	0.034517	1.000000	0.000030	0.000021	0.000010	-4.202224	-76.288536	-3.549370
15527	9.591792	-0.178839	2.317510	0.014927	-0.009374	0.056710	1.000000	0.000021	0.000005	0.000015	-4.203837	-76.289957	-3.548575
15528	9.575395	-0.167789	2.331961	-0.001519	0.003786	0.044004	1.000000	0.000028	0.000016	0.000016	-4.204464	-76.290053	-3.548261
15529	9.580510	-0.200510	2.322149	0.004803	-0.030029	0.047223	1.000000	0.000038	0.000020	0.000014	-4.203174	-76.289768	-3.550964
15530	9.560854	-0.164286	2.313455	0.013543	0.004943	0.025442	1.000000	0.000015	0.000037	0.000012	-4.202643	-76.287583	-3.553336
15531	9.580265	-0.200817	2.323133	0.004044	-0.030239	0.047222	1.000000	0.000048	0.000007	0.000021	-4.203948	-76.288788	-3.549057
15532	9.574990	-0.168356	2.333580	-0.003012	0.003371	0.044004	1.000000	0.000030	0.000021	0.000010	-4.201350	-76.288421	-3.551788
15533	9.578062	-0.193541	2.357468	-0.028587	-0.018530	0.053073	1.000000	0.000038	0.000020	0.000014	-4.200030	-76.288221	-3.552911
15534	9.560507	-0.164746	2.314858	0.012038	0.004524	0.025444	1.000000	0.000023	0.000010	0.000009	-4.198115	-76.289142	-3.555769
15535	9.574753	-0.168639	2.334532	-0.004139	0.003068	0.044003	1.000000	0.000028	0.000016	0.000016	-4.199051	-76.289276	-3.554180
15536	9.590987	-0.180023	2.320749	0.011559	-0.010323	0.056714	1.000000	0.000019	0.000029	0.000009	-4.196983	-76.287972	-3.557730
15537	9.560232	-0.165185	2.315960	0.010938	0.004216	0.025446	1.000000	0.000018	0.000013	0.000018	-4.200076	-76.288438	-3.556170
15538	9.562214	-0.172858	2.282529	0.042441	-0.007821	0.019601	1.000000	0.000031	0.000009	0.000013	-4.199167	-76.289414	-3.557034
15539	9.585605	-0.148057	2.331606	0.003782	0.023090	0.053497	1.000000	0.000035	-0.000001	0.000029	-4.205987	-76.291410	-3.548462
15540	9.590761	-0.180959	2.321609	0.010083	-0.010744	0.056715	1.000000	0.000036	0.000016	0.000020	-4.207619	-76.291561	-3.546156
15541	9.560031	-0.166141	2.316725	0.009462	0.003798	0.025448	1.000000	0.000028	0.000016	0.000016	-4.208510	-76.291674	-3.547701
15542	9.557912	-0.158830	2.350688	-0.022772	0.015624	0.031289	1.000000	0.000028	0.000016	0.000016	-4.209136	-76.291769	-3.547390
15543	9.559879	-0.166588	2.317317	0.008740	0.003585	0.025448	1.000000	0.000034	0.000011	0.000026	-4.214189	-76.292313	-3.541976
15544	9.574120	-0.170496	2.336991	-0.007438	0.002124	0.044002	1.000000	0.000026	0.000014	0.000003	-4.209047	-76.292771	-3.547881
15545	9.562890	-0.191887	2.341396	-0.017226	-0.018407	0.034504	1.000000	0.000055	0.000018	0.000023	-4.209744	-76.292709	-3.541283
15546	9.545329	-0.163249	2.298883	0.023430	0.004619	0.006898	1.000000	0.000025	0.000024	0.000019	-4.211902	-76.291922	-3.539800
15547	9.588109	-0.174722	2.357667	-0.024396	0.000474	0.062552	1.000000	0.000027	0.000028	0.000013	-4.211182	-76.290781	-3.539817
15548	9.575743	-0.178644	2.305032	0.022915	-0.010231	0.038166	1.000000	0.000036	0.000016	0.000020	-4.212814	-76.290931	-3.537512
15549	9.573609	-0.171276	2.339030	-0.009316	0.001618	0.044000	1.000000	0.000030	0.000021	0.000010	-4.210498	-76.290560	-3.541179
15550	9.589872	-0.182726	2.325143	0.006363	-0.011789	0.056717	1.000000	0.000026	0.000012	0.000022	-4.214350	-76.291115	-3.537825
15551	9.571408	-0.164187	2.373267	-0.041918	0.013363	0.049831	1.000000	0.000028	0.000016	0.000016	-4.215224	-76.291237	-3.537466
15552	9.559067	-0.168244	2.320544	0.005394	0.002646	0.025451	1.000000	0.000030	0.000019	0.000029	-4.221615	-76.290966	-3.530944
15553	9.547793	-0.189988	2.325079	-0.004381	-0.017884	0.015949	1.000000	0.000011	0.000028	0.000024	-4.227697	-76.289726	-3.525815
15554	9.547694	-0.190367	2.325456	-0.004749	-0.017993	0.015949	1.000000	0.000034	0.000011	0.000026	-4.232556	-76.290336	-3.520465
15555	9.558789	-0.169166	2.321626	0.004281	0.002334	0.025452	1.000000	0.000018	0.000015	-0.000001	-4.226620	-76.290793	-3.527370
15556	9.575069	-0.180568	2.307680	0.019953	-0.011080	0.038171	1.000000	0.000034	0.000011	0.000026	-4.231480	-76.291404	-3.522021
15557	9.559734	-0.187110	2.379311	-0.053537	-0.007677	0.040318	1.000000	0.000028	0.000016	0.000016	-4.232392	-76.291466	-3.521122
15558	9.560633	-0.177164	2.288814	0.035044	-0.009950	0.019628	1.000000	0.000034	0.000013	0.000007	-4.228258	-76.291980	-3.525031
15559	9.589192	-0.184765	2.327785	0.003027	-0.012730	0.056717	1.000000	0.000041	-0.000004	0.000020	-4.230340	-76.294370	-3.523238
15560	9.574864	-0.181205	2.308481	0.018482	-0.011501	0.038174	1.000000	0.000028	0.000016	0.000016	-4.230964	-76.294463	-3.522931
15561	9.591117	-0.192589	2.294656	0.034128	-0.024914	0.050896	1.000000	0.000022	0.000022	0.000006	-4.227560	-76.294145	-3.527958
15562	9.574680	-0.181243	2.309241	0.017728	-0.011713	0.038175	1.000000	0.000036	0.000018	0.000001	-4.220197	-76.294197	-3.534914
15563	9.585799	-0.160011	2.305331	0.026768	0.008614	0.047683	1.000000	0.000019	0.000001	0.000021	-4.225174	-76.296079	-3.532069
15564	9.588877	-0.185333	2.329035	0.001158	-0.013252	0.056717	1.000000	0.000028	0.000016	0.000016	-4.225798	-76.296171	-3.531762
15565	9.558161	-0.170478	2.324114	0.000588	0.001297	0.025453	1.000000	0.000028	0.000016	0.000016	-4.226639	-76.296280	-3.531940
15566	9.563257	-0.203269	2.314342	0.006827	-0.032548	0.028668	1.000000	0.000028	0.000016	0.000016	-4.227263	-76.296372	-3.531634
15567	9.560065	-0.178447	2.291084	0.031716	-0.010901	0.019638	1.000000	0.000026	0.000012	0.000022	-4.231342	-76.296874	-3.529303
15568	9.583363	-0.153529	2.340452	-0.006914	0.020063	0.053502	1.000000	0.000019	0.000029	0.000009	-4.229257	-76.295568	-3.532872
15569	9.543529	-0.167453	2.306043	0.014955	0.002205	0.006915	1.000000	0.000031	0.000009	0.000013	-4.228496	-76.296572	-3.531519
15570	9.557750	-0.171183	2.325749	-0.001243	0.000765	0.025453	1.000000	0.000036	0.000018	0.000001	-4.221131	-76.296624	-3.538478
15571	9.588291	-0.186200	2.331379	-0.001449	-0.013981	0.056716	1.000000	0.000038	0.000020	0.000014	-4.219887	-76.296455	-3.537469
15572	9.571870	-0.174985	2.345859	-0.017835	-0.000767	0.043989	1.000000	0.000023	0.000010	0.000009	-4.217971	-76.297373	-3.540331
15573	9.573877	-0.182566	2.312462	0.013629	-0.012865	0.038180	1.000000	0.000034	0.000013	0.000007	-4.214003	-76.297998	-3.543861
15574	9.576923	-0.207607	2.336279	-0.012001	-0.034715	0.047201	1.000000	0.000034	0.000013	0.000007	-4.209866	-76.298510	-3.547775
15575	9.584922	-0.161219	2.308890	0.022301	0.007341	0.047695	1.000000	0.000034	0.000013	0.000007	-4.206057	-76.299124	-3.550720
15576	9.587993	-0.186284	2.332594	-0.003330	-0.014507	0.056714	1.000000	0.000035	0.000001	0.000010	-4.203619	-76.300979	-3.552757
15577	9.584825	-0.161418	2.309279	0.021557	0.007130	0.047697	1.000000	0.000041	0.000022	0.000027	-4.208047	-76.300359	-3.546441
15578	9.573552	-0.182829	2.313786	0.011760	-0.013392	0.038182	1.000000	0.000036	0.000018	0.000001	-4.200679	-76.300410	-3.553404
15579	9.557115	-0.171662	2.328322	-0.004625	-0.000158	0.025452	1.000000	0.000030	0.000019	0.000029	-4.207359	-76.300193	-3.547242
15580	9.593658	-0.133054	2.339895	-0.001970	0.039229	0.063017	1.000000	0.000020	0.000017	0.000012	-4.206971	-76.300229	-3.548936
15581	9.573263	-0.183387	2.314941	0.010640	-0.013697	0.038183	1.000000	0.000027	0.000028	0.000013	-4.206211	-76.299014	-3.549527
15582	9.556778	-0.172206	2.329664	-0.005732	-0.000472	0.025451	1.000000	0.000027	0.000028	0.000013	-4.205133	-76.297762	-3.551103
15583	9.598445	-0.166070	2.331381	0.003496	0.005181	0.066231	1.000000	0.000027	0.000028	0.000013	-4.204337	-76.296505	-3.552424
15584	9.556506	-0.172483	2.330759	-0.006465	-0.000679	0.025451	1.000000	0.000035	0.000028	0.000017	-4.204269	-76.295308	-3.552003
15585	9.581806	-0.155071	2.346718	-0.013239	0.018313	0.053498	1.000000	0.000015	0.000037	0.000012	-4.204025	-76.293116	-3.554239
15586	9.556187	-0.172730	2.332051	-0.007198	-0.000884	0.025450	1.000000	0.000029	0.000033	0.000007	-4.199719	-76.291402	-3.558861
15587	9.583594	-0.162787	2.314288	0.017871	0.006083	0.047705	1.000000	0.000038	0.000020	0.000014	-4.198470	-76.291085	-3.559525
15588	9.567145	-0.151567	2.328846	0.001508	0.019315	0.034971	1.000000	0.000038	0.000020	0.000014	-4.196874	-76.290769	-3.560271
15589	9.586501	-0.187983	2.338584	-0.008165	-0.015845	0.056710	1.000000	0.000042	0.000013	0.000011	-4.193961	-76.291418	-3.562787
15590	9.570049	-0.176737	2.353148	-0.024527	-0.002609	0.043974	1.000000	0.000027	0.000028	0.000013	-4.192884	-76.290165	-3.564363
15591	9.555666	-0.173303	2.334143	-0.009036	-0.001396	0.025449	1.000000	0.000038	0.000018	0.000033	-4.200505	-76.289884	-3.556900
15592	9.569843	-0.177350	2.353939	-0.025252	-0.002815	0.043972	1.000000	0.000028	0.000016	0.000016	-4.201128	-76.289973	-3.556598
15593	9.530060	-0.191347	2.319394	-0.003384	-0.020693	-0.002600	1.000000	0.000031	0.000009	0.000013	-4.200432	-76.291055	-3.558393
15594	9.597236	-0.167697	2.336236	-0.000574	0.004026	0.066232	1.000000	0.000025	0.000024	0.000019	-4.202581	-76.290262	-3.556925
15595	9.538996	-0.162781	2.349535	-0.026505	0.011540	0.012709	1.000000	0.000023	0.000010	0.000009	-4.200890	-76.291165	-3.559414
15596	9.588962	-0.214251	2.364577	-0.036057	-0.038285	0.065701	1.000000	0.000030	0.000021	0.000010	-4.198284	-76.290793	-3.562159
15597	9.585807	-0.189426	2.341309	-0.011132	-0.016682	0.056705	1.000000	0.000034	0.000011	0.000026	-4.203328	-76.291443	-3.556445
15598	9.571474	-0.185968	2.322121	0.004352	-0.015486	0.038185	1.000000	0.000028	0.000016	0.000016	-4.203950	-76.291532	-3.556144
15599	9.571374	-0.186186	2.322516	0.003976	-0.015584	0.038185	1.000000	0.000025	0.000024	0.000019	-4.206363	-76.290785	-3.555027
15600	9.585541	-0.190006	2.342353	-0.012248	-0.016998	0.056703	1.000000	0.000026	0.000014	0.000003	-4.201220	-76.291241	-3.560937
15601	9.543670	-0.196394	2.341416	-0.022201	-0.022826	0.015915	1.000000	0.000034	0.000011	0.000026	-4.206357	-76.291907	-3.554219
15602	9.580265	-0.157742	2.352824	-0.019518	0.016549	0.053491	1.000000	0.000031	0.000009	0.000013	-4.205454	-76.292878	-3.555084
15603	9.554735	-0.175221	2.337805	-0.013488	-0.002638	0.025443	1.000000	0.000030	0.000023	-0.000009	-4.194117	-76.292450	-3.567993
15604	9.554661	-0.175140	2.338114	-0.013855	-0.002747	0.025443	1.000000	0.000039	0.000008	0.000017	-4.194224	-76.293475	-3.566862
15605	9.529145	-0.192885	2.323025	-0.007846	-0.021932	-0.002605	1.000000	0.000028	0.000016	0.000016	-4.195150	-76.293720	-3.565716
15606	9.570904	-0.186735	2.324405	0.001354	-0.016315	0.038184	1.000000	0.000027	0.000002	0.000006	-4.191708	-76.295518	-3.569747
15607	9.570849	-0.186781	2.324629	0.000973	-0.016411	0.038184	1.000000	0.000038	0.000020	0.000014	-4.190423	-76.295279	-3.570683
15608	9.596246	-0.169225	2.340192	-0.005797	0.002570	0.066231	1.000000	0.000019	0.000003	0.000002	-4.185969	-76.297022	-3.576713
15609	9.570762	-0.186839	2.324982	0.000215	-0.016618	0.038184	1.000000	0.000031	0.000009	0.000013	-4.185338	-76.298117	-3.576309
15610	9.584033	-0.173413	2.287331	0.041137	-0.008416	0.041950	1.000000	0.000027	-0.000000	0.000025	-4.190895	-76.300009	-3.571080
15611	9.581886	-0.165847	2.321130	0.008932	0.003558	0.047718	1.000000	0.000020	0.000019	-0.000007	-4.181705	-76.300001	-3.580021
15612	9.572702	-0.194759	2.292014	0.030928	-0.029016	0.032417	1.000000	0.000028	0.000016	0.000016	-4.182326	-76.300089	-3.579723
15613	9.572611	-0.194880	2.292382	0.030548	-0.029119	0.032418	1.000000	0.000030	0.000021	0.000010	-4.179907	-76.299782	-3.582969
15614	9.556175	-0.183550	2.306854	0.014219	-0.015856	0.019672	1.000000	0.000034	0.000013	0.000007	-4.175770	-76.300292	-3.586887
15615	9.572447	-0.195065	2.293051	0.029808	-0.029329	0.032420	1.000000	0.000014	0.000020	0.000021	-4.180467	-76.299914	-3.584482
15616	9.583533	-0.174029	2.289375	0.038907	-0.009058	0.041958	1.000000	0.000035	0.000028	0.000017	-4.180395	-76.298714	-3.584069
15617	9.567055	-0.162605	2.304024	0.022584	0.004215	0.029212	1.000000	0.000057	0.000025	-0.000002	-4.168759	-76.297950	-3.592945
15618	9.566946	-0.162458	2.304485	0.022217	0.004104	0.029213	1.000000	0.000022	0.000022	0.000006	-4.165136	-76.297522	-3.597695
15619	9.555643	-0.183807	2.309040	0.012352	-0.016377	0.019674	1.000000	0.000038	0.000020	0.000014	-4.163735	-76.297367	-3.597379
15620	9.581004	-0.166360	2.324730	0.005584	0.002605	0.047721	1.000000	0.000028	0.000016	0.000016	-4.164355	-76.297455	-3.597083
15621	9.578794	-0.158921	2.358725	-0.026619	0.014608	0.053478	1.000000	0.000024	0.000024	0.000019	-4.166867	-76.296745	-3.596407
15622	9.585973	-0.199412	2.315475	0.011309	-0.031362	0.050930	1.000000	0.000031	0.000009	0.000013	-4.165961	-76.297715	-3.597277
15623	9.591978	-0.145700	2.321500	0.013954	0.022680	0.057264	1.000000	0.000034	0.000011	0.000026	-4.171163	-76.298254	-3.592494
15624	9.527655	-0.194757	2.328972	-0.014912	-0.023889	-0.002618	1.000000	0.000035	0.000028	0.000017	-4.171089	-76.297052	-3.592083
15625	9.555994	-0.202243	2.368523	-0.047044	-0.026548	0.034388	1.000000	0.000029	0.000033	0.000007	-4.167051	-76.295416	-3.597357
15626	9.567067	-0.181122	2.364911	-0.037935	-0.006280	0.043930	1.000000	0.000041	0.000022	0.000027	-4.171221	-76.294730	-3.591899
15627	9.571229	-0.196725	2.297991	0.025316	-0.030592	0.032428	1.000000	0.000021	0.000005	0.000015	-4.172915	-76.296208	-3.590315
15628	9.569074	-0.189226	2.331727	-0.006870	-0.018590	0.038178	1.000000	0.000039	0.000008	0.000017	-4.173024	-76.297232	-3.589185
15629	9.569010	-0.189229	2.331989	-0.007237	-0.018687	0.038177	1.000000	0.000036	0.000018	0.000001	-4.165950	-76.297272	-3.597772
15630	9.568919	-0.189206	2.332365	-0.007606	-0.018797	0.038177	1.000000	0.000038	0.000020	0.000014	-4.164351	-76.296953	-3.598527
15631	9.580043	-0.167919	2.328577	0.001495	0.001475	0.047723	1.000000	0.000044	0.000017	0.000005	-4.158215	-76.297141	-3.602319
15632	9.570840	-0.196878	2.299595	0.023457	-0.031126	0.032431	1.000000	0.000019	0.000029	0.000009	-4.156114	-76.295830	-3.605908
15633	9.540130	-0.181942	2.294684	0.023062	-0.016558	0.001178	1.000000	0.000055	0.000019	0.000023	-4.156761	-76.295465	-3.606419
15634	9.568494	-0.189543	2.334080	-0.009070	-0.019215	0.038175	1.000000	0.000024	0.000024	0.000019	-4.158904	-76.294668	-3.604963
15635	9.568357	-0.189671	2.334633	-0.009439	-0.019318	0.038174	1.000000	0.000029	0.000033	0.000007	-4.154730	-76.292957	-3.608070
15636	9.595799	-0.179921	2.316916	0.015610	-0.012463	0.060479	1.000000	0.000033	0.000023	0.000023	-4.157885	-76.292215	-3.604615
15637	9.568120	-0.189895	2.335584	-0.010185	-0.019521	0.038173	1.000000	0.000036	0.000018	0.000001	-4.150881	-76.292315	-3.611391
15638	9.579238	-0.168670	2.331830	-0.001062	0.000736	0.047723	1.000000	0.000024	0.000024	0.000019	-4.153024	-76.291517	-3.609936
15639	9.565813	-0.182455	2.369878	-0.042759	-0.007589	0.043909	1.000000	0.000013	0.000006	0.000011	-4.153588	-76.292998	-3.611287
15640	9.551535	-0.178854	2.350572	-0.027241	-0.006427	0.025413	1.000000	0.000042	0.000013	0.000011	-4.150467	-76.293561	-3.613206
15641	9.582051	-0.193867	2.356274	-0.027574	-0.021201	0.056664	1.000000	0.000036	0.000018	0.000001	-4.143331	-76.293605	-3.619989
15642	9.564741	-0.165280	2.313420	0.013329	0.001586	0.029230	1.000000	0.000017	0.000013	0.000018	-4.146166	-76.294096	-3.618649
15643	9.584054	-0.201862	2.323194	0.003477	-0.033550	0.050929	1.000000	0.000048	0.000007	0.000021	-4.147551	-76.295276	-3.616402
15644	9.564636	-0.165597	2.313834	0.012578	0.001377	0.029231	1.000000	0.000034	0.000013	0.000007	-4.143415	-76.295783	-3.620323
15645	9.590007	-0.148226	2.329469	0.005812	0.020379	0.057277	1.000000	0.000038	0.000018	0.000033	-4.151184	-76.295600	-3.611630
15646	9.555396	-0.195074	2.285005	0.034142	-0.031339	0.013947	1.000000	0.000023	0.000010	0.000009	-4.149265	-76.296514	-3.614502
15647	9.575623	-0.144950	2.310605	0.020972	0.021430	0.038787	1.000000	0.000043	0.000027	0.000021	-4.150435	-76.295361	-3.611915
15648	9.581565	-0.195108	2.358146	-0.030185	-0.021918	0.056655	1.000000	0.000030	-0.000008	0.000022	-4.154472	-76.298132	-3.607851
15649	9.580677	-0.177948	2.300998	0.026641	-0.012556	0.041995	1.000000	0.000036	0.000018	0.000001	-4.147370	-76.298210	-3.615594
15650	9.553015	-0.187882	2.319562	0.000860	-0.019604	0.019676	1.000000	0.000017	0.000013	0.000018	-4.150205	-76.298700	-3.614256
15651	9.575391	-0.145661	2.311521	0.019486	0.021009	0.038791	1.000000	0.000022	0.000019	0.000025	-4.155841	-76.298467	-3.610673
15652	9.569184	-0.199926	2.306217	0.016011	-0.033234	0.032439	1.000000	0.000024	0.000024	0.000019	-4.157980	-76.297668	-3.609222
15653	9.549734	-0.163791	2.297014	0.025143	0.001700	0.010748	1.000000	0.000028	0.000016	0.000016	-4.158873	-76.297756	-3.608806
15654	9.578074	-0.171201	2.336427	-0.007019	-0.000921	0.047720	1.000000	0.000033	0.000025	0.000004	-4.153025	-76.296920	-3.614616
15655	9.563763	-0.167644	2.317291	0.008513	0.000239	0.029235	1.000000	0.000026	0.000012	0.000022	-4.157237	-76.297464	-3.611891
15656	9.536077	-0.177623	2.335915	-0.017265	-0.006795	0.006909	1.000000	0.000033	0.000025	0.000004	-4.151390	-76.296628	-3.617701
15657	9.565718	-0.175717	2.284471	0.039592	-0.012153	0.023518	1.000000	0.000020	0.000015	0.000031	-4.160129	-76.296660	-3.609640
15658	9.563484	-0.168282	2.318397	0.007426	-0.000086	0.029236	1.000000	0.000038	0.000020	0.000014	-4.158528	-76.296338	-3.610401
15659	9.579756	-0.179835	2.304683	0.022938	-0.013613	0.042003	1.000000	0.000028	0.000016	0.000016	-4.159464	-76.296523	-3.608488
15660	9.577545	-0.172239	2.338515	-0.009227	-0.001542	0.047719	1.000000	0.000031	0.000009	0.000013	-4.158560	-76.297490	-3.609360
15661	9.605072	-0.162634	2.320539	0.015806	0.005275	0.070050	1.000000	0.000022	0.000019	0.000025	-4.164196	-76.297194	-3.604538
15662	9.563187	-0.169076	2.319563	0.005934	-0.000500	0.029237	1.000000	0.000039	0.000008	0.000017	-4.164309	-76.298214	-3.603409
15663	9.579486	-0.180661	2.305740	0.021461	-0.014034	0.042006	1.000000	0.000028	0.000016	0.000016	-4.165200	-76.298280	-3.601540
15664	9.563035	-0.169543	2.320154	0.005203	-0.000709	0.029237	1.000000	0.000030	0.000019	0.000029	-4.171585	-76.297993	-3.595043
15665	9.568066	-0.202367	2.310638	0.011178	-0.034588	0.032441	1.000000	0.000036	0.000018	0.000001	-4.164509	-76.298198	-3.602775
15666	9.579210	-0.181202	2.306847	0.020328	-0.014354	0.042008	1.000000	0.000041	0.000022	0.000027	-4.168676	-76.297505	-3.597328
15667	9.560569	-0.162252	2.354984	-0.027736	0.011185	0.034945	1.000000	0.000027	0.000028	0.000013	-4.167897	-76.296355	-3.597335
15668	9.584086	-0.214379	2.297943	0.025935	-0.048345	0.045213	1.000000	0.000022	0.000019	0.000025	-4.173265	-76.296014	-3.592841
15669	9.576705	-0.174268	2.341805	-0.012602	-0.002466	0.047715	1.000000	0.000033	0.000023	0.000023	-4.176545	-76.295355	-3.588564
15670	9.562391	-0.170797	2.322718	0.002940	-0.001333	0.029238	1.000000	0.000038	0.000020	0.000014	-4.174943	-76.295032	-3.589327
15671	9.581596	-0.207305	2.332833	-0.006967	-0.036461	0.050917	1.000000	0.000043	0.000027	0.000021	-4.176097	-76.293784	-3.587709
15672	9.587622	-0.153551	2.338926	-0.004164	0.017556	0.057283	1.000000	0.000028	0.000016	0.000016	-4.176713	-76.293867	-3.587424
15673	9.562112	-0.171171	2.323836	0.001845	-0.001640	0.029238	1.000000	0.000029	0.000007	0.000000	-4.170372	-76.295264	-3.593161
15674	9.581365	-0.207509	2.333765	-0.008088	-0.036774	0.050915	1.000000	0.000038	0.000020	0.000014	-4.168769	-76.294941	-3.593925
15675	9.576187	-0.174981	2.343867	-0.014808	-0.003085	0.047711	1.000000	0.000029	0.000004	0.000019	-4.171370	-76.296396	-3.592487
15676	9.564871	-0.196381	2.348320	-0.024707	-0.023531	0.038139	1.000000	0.000030	0.000021	0.000010	-4.168751	-76.296019	-3.595253
15677	9.561841	-0.171525	2.324928	0.000352	-0.002052	0.029238	1.000000	0.000050	0.000012	0.000015	-4.166964	-76.296752	-3.595577
15678	9.550499	-0.192939	2.329485	-0.009548	-0.022497	0.019665	1.000000	0.000024	0.000024	0.000019	-4.169095	-76.295951	-3.594136
15679	9.578035	-0.183491	2.311538	0.015477	-0.015710	0.042015	1.000000	0.000031	0.000007	0.000032	-4.177574	-76.297053	-3.585546
15680	9.575781	-0.176026	2.345447	-0.016676	-0.003597	0.047708	1.000000	0.000035	0.000028	0.000017	-4.177487	-76.295845	-3.585157
15681	9.561472	-0.172341	2.326384	-0.001114	-0.002458	0.029238	1.000000	0.000020	0.000019	-0.000007	-4.168506	-76.295722	-3.598060
15682	9.575566	-0.176011	2.346329	-0.017401	-0.003797	0.047707	1.000000	0.000024	0.000024	0.000019	-4.170637	-76.294920	-3.596621
15683	9.564208	-0.197500	2.350925	-0.027292	-0.024224	0.038130	1.000000	0.000036	0.000016	0.000020	-4.172601	-76.294965	-3.594692
15684	9.549922	-0.193983	2.331763	-0.011739	-0.023103	0.019661	1.000000	0.000030	0.000021	0.000010	-4.169981	-76.294587	-3.597460
15685	9.600724	-0.158823	2.362813	-0.024884	0.015007	0.075749	1.000000	0.000022	0.000022	0.000006	-4.166673	-76.294235	-3.602301
15686	9.549735	-0.194016	2.332524	-0.012489	-0.023306	0.019660	1.000000	0.000034	0.000013	0.000007	-4.162538	-76.294740	-3.606224
15687	9.588581	-0.162958	2.310227	0.022076	0.003792	0.051596	1.000000	0.000027	0.000002	0.000006	-4.159440	-76.296586	-3.609391
15688	9.575074	-0.176488	2.348297	-0.019615	-0.004406	0.047703	1.000000	0.000035	0.000028	0.000017	-4.159353	-76.295377	-3.609003
15689	9.574954	-0.176579	2.348779	-0.020004	-0.004504	0.047702	1.000000	0.000022	0.000022	0.000006	-4.155939	-76.295074	-3.612924
15690	9.560689	-0.172991	2.329552	-0.004447	-0.003389	0.029237	1.000000	0.000031	0.000009	0.000013	-4.155038	-76.296038	-3.613797
15691	9.577001	-0.184514	2.315738	0.011041	-0.016957	0.042018	1.000000	0.000042	0.000013	0.000011	-4.152194	-76.296578	-3.616141
15692	9.569646	-0.144080	2.359412	-0.027407	0.028978	0.044498	1.000000	0.000020	0.000017	0.000012	-4.151791	-76.296605	-3.617861
15693	9.562674	-0.181077	2.296764	0.026218	-0.015941	0.023557	1.000000	0.000031	0.000009	0.000013	-4.151258	-76.297650	-3.618875
15694	9.618617	-0.178730	2.317834	0.019388	-0.011641	0.082846	1.000000	0.000028	0.000016	0.000016	-4.151872	-76.297731	-3.618594
15695	9.555211	-0.140812	2.340863	-0.012602	0.029906	0.026035	1.000000	0.000037	0.000032	0.000011	-4.148924	-76.296152	-3.620843
15696	9.576571	-0.184976	2.317479	0.009169	-0.017476	0.042019	1.000000	0.000026	0.000014	0.000003	-4.143770	-76.296603	-3.626769
15697	9.587763	-0.163956	2.313548	0.018351	0.002749	0.051604	1.000000	0.000020	0.000015	0.000031	-4.152728	-76.296732	-3.620719
15698	9.545883	-0.170440	2.312485	0.008521	-0.002987	0.010776	1.000000	0.000047	0.000007	0.000022	-4.153863	-76.297803	-3.617589
15699	9.565105	-0.206979	2.322458	-0.001493	-0.038096	0.032435	1.000000	0.000028	0.000016	0.000016	-4.154842	-76.297870	-3.617886
15700	9.574089	-0.178146	2.352184	-0.024078	-0.005620	0.047692	1.000000	0.000033	0.000023	0.000023	-4.157988	-76.297120	-3.614449
15701	9.567090	-0.215306	2.289680	0.029541	-0.050571	0.026763	1.000000	0.000036	0.000016	0.000020	-4.159942	-76.297240	-3.612116
15702	9.548455	-0.196204	2.337575	-0.018435	-0.024927	0.019647	1.000000	0.000028	0.000016	0.000016	-4.160556	-76.297320	-3.611837
15703	9.576003	-0.186576	2.319695	0.006608	-0.018187	0.042020	1.000000	0.000038	0.000020	0.000014	-4.159393	-76.296893	-3.613100
15704	9.590119	-0.190360	2.339486	-0.009698	-0.019507	0.060476	1.000000	0.000021	0.000005	0.000015	-4.160710	-76.298262	-3.612924
15705	9.573723	-0.178956	2.353613	-0.025927	-0.006118	0.047687	1.000000	0.000045	0.000005	0.000008	-4.156298	-76.299875	-3.615506
15706	9.590017	-0.190535	2.339890	-0.010466	-0.019715	0.060474	1.000000	0.000024	0.000024	0.000019	-4.158425	-76.299070	-3.614074
15707	9.561542	-0.183376	2.301288	0.021029	-0.017392	0.023567	1.000000	0.000041	0.000025	0.000008	-4.153973	-76.298373	-3.617464
15708	9.603265	-0.177353	2.302986	0.030112	-0.011888	0.064400	1.000000	0.000036	0.000016	0.000020	-4.155605	-76.298505	-3.615183
15709	9.559144	-0.175801	2.335671	-0.011479	-0.005322	0.029231	1.000000	0.000027	0.000028	0.000013	-4.154622	-76.297275	-3.615667
15710	9.573220	-0.179508	2.355618	-0.027788	-0.006635	0.047682	1.000000	0.000042	0.000013	0.000011	-4.151505	-76.297832	-3.617591
15711	9.575349	-0.187364	2.322331	0.003617	-0.019021	0.042020	1.000000	0.000034	0.000013	0.000007	-4.147664	-76.298293	-3.620426
15712	9.572380	-0.162582	2.298849	0.028759	0.002382	0.033162	1.000000	0.000028	0.000016	0.000016	-4.148277	-76.298372	-3.620148
15713	9.558808	-0.176217	2.337017	-0.012940	-0.005731	0.029229	1.000000	0.000041	0.000022	0.000027	-4.152784	-76.297672	-3.614065
15714	9.575078	-0.187802	2.323413	0.002511	-0.019337	0.042020	1.000000	0.000036	0.000018	0.000001	-4.145412	-76.297717	-3.621044
15715	9.574997	-0.187863	2.323742	0.002124	-0.019437	0.042020	1.000000	0.000044	0.000015	0.000024	-4.148277	-76.298003	-3.617612
15716	9.574890	-0.188079	2.324165	0.001755	-0.019546	0.042020	1.000000	0.000035	0.000028	0.000017	-4.148184	-76.296791	-3.617234
15717	9.574764	-0.188310	2.324665	0.001380	-0.019641	0.042020	1.000000	0.000032	0.000023	0.000023	-4.151671	-76.296078	-3.613498
15718	9.574655	-0.188486	2.325099	0.001011	-0.019751	0.042019	1.000000	0.000030	0.000021	0.000010	-4.149047	-76.295698	-3.616273
15719	9.558203	-0.177028	2.339428	-0.015169	-0.006349	0.029225	1.000000	0.000042	0.000013	0.000011	-4.146124	-76.296253	-3.616770
15720	9.585785	-0.167399	2.321482	0.009850	0.000341	0.051616	1.000000	0.000028	0.000016	0.000016	-4.146735	-76.296331	-3.616495
15721	9.574472	-0.188702	2.325836	-0.000127	-0.020058	0.042019	1.000000	0.000038	-0.000006	0.000007	-4.143103	-76.299253	-3.618174
15722	9.583508	-0.159703	2.355317	-0.022677	0.012446	0.057266	1.000000	0.000024	0.000024	0.000019	-4.145226	-76.298447	-3.616748
15723	9.560167	-0.185289	2.306842	0.015088	-0.019064	0.023575	1.000000	0.000026	0.000014	0.000003	-4.140532	-76.298895	-3.622188
15724	9.569165	-0.156177	2.336482	-0.007458	0.013442	0.038821	1.000000	0.000030	0.000021	0.000010	-4.137907	-76.298514	-3.624966
15725	9.557785	-0.177360	2.341111	-0.017417	-0.006948	0.029221	1.000000	0.000036	0.000018	0.000001	-4.130977	-76.298632	-3.632672
15726	9.568981	-0.156109	2.337238	-0.008203	0.013243	0.038821	1.000000	0.000038	0.000020	0.000014	-4.129372	-76.298304	-3.633447
15727	9.571117	-0.164082	2.303993	0.023179	0.000827	0.033177	1.000000	0.000023	0.000010	0.000009	-4.127795	-76.299257	-3.635494
15728	9.585179	-0.167896	2.323951	0.006856	-0.000474	0.051619	1.000000	0.000021	0.000032	0.000022	-4.131430	-76.297566	-3.632917
15729	9.560259	-0.202662	2.366498	-0.044415	-0.028842	0.038055	1.000000	0.000038	0.000020	0.000014	-4.130109	-76.297122	-3.633913
15730	9.570787	-0.164709	2.305320	0.022098	0.000504	0.033180	1.000000	0.000041	0.000022	0.000027	-4.134271	-76.296420	-3.628483
15731	9.568465	-0.156986	2.339291	-0.010018	0.012730	0.038820	1.000000	0.000022	0.000022	0.000006	-4.130796	-76.295958	-3.632990
15732	9.559286	-0.186165	2.310418	0.011780	-0.020006	0.023577	1.000000	0.000038	0.000020	0.000014	-4.129191	-76.295629	-3.633766
15733	9.589727	-0.201453	2.316358	0.011232	-0.034809	0.054816	1.000000	0.000036	0.000016	0.000020	-4.131100	-76.295842	-3.630953
15734	9.582322	-0.160983	2.360049	-0.027091	0.011231	0.057256	1.000000	0.000027	0.000028	0.000013	-4.129984	-76.294575	-3.632583
15735	9.529091	-0.188449	2.363414	-0.046461	-0.014747	0.006806	1.000000	0.000028	0.000016	0.000016	-4.130807	-76.294605	-3.633682
15736	9.584348	-0.169226	2.327278	0.003932	-0.001317	0.051620	1.000000	0.000028	0.000016	0.000016	-4.131417	-76.294681	-3.633410
15737	9.567905	-0.158011	2.341514	-0.012233	0.012110	0.038818	1.000000	0.000050	0.000010	0.000035	-4.138620	-76.295436	-3.622012
15738	9.572935	-0.190902	2.331973	-0.006408	-0.021815	0.042013	1.000000	0.000029	0.000007	0.000000	-4.131955	-76.296770	-3.629094
15739	9.570025	-0.166243	2.308371	0.018778	-0.000442	0.033187	1.000000	0.000012	0.000016	0.000027	-4.139808	-76.296854	-3.623230
15740	9.542251	-0.176294	2.326989	-0.006968	-0.007314	0.010775	1.000000	0.000024	0.000024	0.000019	-4.141926	-76.296046	-3.621810
15741	9.600367	-0.181899	2.314687	0.017863	-0.015355	0.064425	1.000000	0.000023	0.000010	0.000009	-4.140402	-76.296937	-3.624655
15742	9.569769	-0.166989	2.309377	0.017679	-0.000758	0.033189	1.000000	0.000022	0.000020	0.000025	-4.145758	-76.296587	-3.620183
15743	9.588881	-0.203679	2.319661	0.007510	-0.035849	0.054816	1.000000	0.000032	0.000023	0.000023	-4.149229	-76.295919	-3.616284
15744	9.585945	-0.178977	2.296200	0.032707	-0.014498	0.045996	1.000000	0.000026	0.000014	0.000003	-4.144073	-76.296369	-3.622216
15745	9.569480	-0.167545	2.310537	0.016548	-0.001072	0.033191	1.000000	0.000024	0.000024	0.000019	-4.146239	-76.295645	-3.619430
15746	9.572222	-0.192460	2.334771	-0.009390	-0.022642	0.042009	1.000000	0.000052	0.000016	0.000009	-4.140909	-76.295794	-3.622405
15747	9.567073	-0.159771	2.344792	-0.015925	0.011073	0.038814	1.000000	0.000028	0.000016	0.000016	-4.141619	-76.295837	-3.622285
15748	9.585612	-0.179386	2.297558	0.031223	-0.014937	0.046000	1.000000	0.000031	0.000009	0.000013	-4.140721	-76.296797	-3.623163
15749	9.586128	-0.196404	2.355289	-0.026443	-0.024131	0.060435	1.000000	0.000035	0.000028	0.000017	-4.140794	-76.295463	-3.622289
15750	9.569041	-0.168186	2.312306	0.014737	-0.001615	0.033194	1.000000	0.000036	0.000016	0.000020	-4.142424	-76.295590	-3.620016
15751	9.583093	-0.171925	2.332240	-0.001614	-0.002884	0.051621	1.000000	0.000030	0.000021	0.000010	-4.140064	-76.295274	-3.623302
15752	9.568834	-0.168438	2.313144	0.013991	-0.001824	0.033195	1.000000	0.000035	0.000028	0.000017	-4.139963	-76.294059	-3.622936
15753	9.571591	-0.193186	2.337296	-0.011952	-0.023371	0.042004	1.000000	0.000043	0.000003	-0.000005	-4.129880	-76.295839	-3.630145
15754	9.568704	-0.168245	2.313694	0.013263	-0.002033	0.033196	1.000000	0.000022	0.000022	0.000006	-4.126229	-76.295403	-3.634934
15755	9.585589	-0.196805	2.357450	-0.028681	-0.024743	0.060427	1.000000	0.000025	0.000012	0.000022	-4.130353	-76.296022	-3.631102
15756	9.582696	-0.172126	2.333860	-0.003463	-0.003407	0.051620	1.000000	0.000026	0.000014	0.000003	-4.125195	-76.296471	-3.637038
15757	9.582647	-0.172195	2.334054	-0.003849	-0.003496	0.051620	1.000000	0.000021	0.000005	0.000015	-4.126982	-76.297946	-3.635540
15758	9.610279	-0.162703	2.316053	0.021153	0.003122	0.074050	1.000000	0.000020	0.000017	0.000012	-4.126568	-76.297969	-3.637276
15759	9.554805	-0.182097	2.352880	-0.029982	-0.010433	0.029187	1.000000	0.000022	0.000022	0.000006	-4.123079	-76.297683	-3.640308
15760	9.568276	-0.168866	2.315419	0.011000	-0.002653	0.033198	1.000000	0.000042	0.000013	0.000011	-4.119964	-76.298236	-3.642237
15761	9.554077	-0.165421	2.296093	0.026582	-0.001590	0.014778	1.000000	0.000017	0.000013	0.000018	-4.122996	-76.298902	-3.640056
15762	9.554014	-0.165729	2.296332	0.026216	-0.001701	0.014779	1.000000	0.000033	0.000011	0.000026	-4.127865	-76.299487	-3.634730
15763	9.568068	-0.169522	2.316231	0.009878	-0.002964	0.033199	1.000000	0.000030	0.000021	0.000010	-4.125489	-76.299041	-3.639253
15764	9.567969	-0.169599	2.316636	0.009510	-0.003074	0.033200	1.000000	0.000038	0.000020	0.000014	-4.123880	-76.298709	-3.640036
15765	9.567862	-0.169794	2.317063	0.009120	-0.003164	0.033200	1.000000	0.000032	0.000023	0.000023	-4.127463	-76.298089	-3.636621
15766	9.567764	-0.170053	2.317448	0.008752	-0.003274	0.033200	1.000000	0.000036	0.000016	0.000020	-4.129093	-76.298216	-3.634351
15767	9.581797	-0.173898	2.337417	-0.007613	-0.004525	0.051617	1.000000	0.000032	0.000023	0.000023	-4.132614	-76.297534	-3.631061
15768	9.553445	-0.166844	2.298617	0.023991	-0.002322	0.014785	1.000000	0.000026	0.000014	0.000003	-4.127454	-76.297984	-3.636999
15769	9.581621	-0.174035	2.338126	-0.008344	-0.004732	0.051616	1.000000	0.000038	0.000020	0.000014	-4.126110	-76.297618	-3.638120
15770	9.581512	-0.174209	2.338560	-0.008713	-0.004841	0.051616	1.000000	0.000024	0.000024	0.000019	-4.128223	-76.296807	-3.636709
15771	9.558754	-0.216762	2.347578	-0.028329	-0.045475	0.032363	1.000000	0.000030	0.000021	0.000010	-4.125809	-76.296416	-3.638298
15772	9.567192	-0.170799	2.319754	0.006542	-0.003899	0.033202	1.000000	0.000034	0.000013	0.000007	-4.121672	-76.296917	-3.642231
15773	9.553011	-0.167264	2.300391	0.022147	-0.002846	0.014789	1.000000	0.000031	0.000009	0.000013	-4.120991	-76.297980	-3.641595
15774	9.555747	-0.192190	2.324525	-0.003839	-0.024373	0.023574	1.000000	0.000028	0.000017	0.000016	-4.121598	-76.298054	-3.641331
15775	9.581122	-0.174634	2.340124	-0.010568	-0.005354	0.051614	1.000000	0.000026	0.000014	0.000003	-4.116780	-76.298492	-3.646685
15776	9.581039	-0.174815	2.340450	-0.010936	-0.005463	0.051614	1.000000	0.000030	0.000019	0.000029	-4.123154	-76.298190	-3.640217
15777	9.569099	-0.179495	2.287625	0.036416	-0.016837	0.027612	1.000000	0.000031	0.000009	0.000013	-4.122478	-76.299141	-3.639890
15778	9.580892	-0.175141	2.341031	-0.011671	-0.005672	0.051613	1.000000	0.000022	0.000022	0.000006	-4.118821	-76.298705	-3.644685
15779	9.594368	-0.162098	2.303664	0.029313	0.002075	0.055655	1.000000	0.000032	0.000023	0.000023	-4.122474	-76.297978	-3.641627
15780	9.550171	-0.160293	2.336238	-0.012146	0.008852	0.020381	1.000000	0.000022	0.000022	0.000006	-4.118818	-76.297542	-3.646422
15781	9.569247	-0.196759	2.346578	-0.022450	-0.026227	0.041979	1.000000	0.000036	0.000016	0.000020	-4.120648	-76.297871	-3.642862
15782	9.566378	-0.172211	2.323002	0.002812	-0.004932	0.033203	1.000000	0.000036	0.000016	0.000020	-4.122278	-76.297996	-3.640594
15783	9.582678	-0.184016	2.309401	0.018158	-0.018611	0.046026	1.000000	0.000036	0.000016	0.000020	-4.124098	-76.298187	-3.638717
15784	9.582596	-0.184219	2.309722	0.017789	-0.018721	0.046027	1.000000	0.000028	0.000017	0.000016	-4.124704	-76.298260	-3.638454
15785	9.554790	-0.193925	2.328311	-0.007943	-0.025490	0.023569	1.000000	0.000022	0.000022	0.000006	-4.121498	-76.297841	-3.644017
15786	9.566031	-0.172669	2.324398	0.001328	-0.005343	0.033203	1.000000	0.000036	0.000018	0.000001	-4.114122	-76.297884	-3.651006
15787	9.580056	-0.176399	2.344353	-0.015047	-0.006586	0.051607	1.000000	0.000038	0.000018	0.000033	-4.121667	-76.297672	-3.641581
15788	9.549482	-0.161644	2.338957	-0.015132	0.008028	0.020378	1.000000	0.000033	0.000011	0.000026	-4.126536	-76.298253	-3.636259
15789	9.554435	-0.194581	2.329711	-0.009404	-0.025906	0.023566	1.000000	0.000041	0.000025	0.000008	-4.122039	-76.297350	-3.639353
15790	9.593906	-0.180505	2.364983	-0.032136	-0.008036	0.070008	1.000000	0.000034	0.000013	0.000007	-4.117902	-76.297850	-3.643288
15791	9.568361	-0.198222	2.350065	-0.026139	-0.027249	0.041967	1.000000	0.000016	0.000025	0.000015	-4.119254	-76.296951	-3.644167
15792	9.579598	-0.177230	2.346161	-0.016864	-0.007105	0.051604	1.000000	0.000028	0.000017	0.000016	-4.119860	-76.297023	-3.643906
15793	9.574476	-0.144506	2.356083	-0.023319	0.026636	0.048415	1.000000	0.000052	0.000016	0.000009	-4.114729	-76.297302	-3.646664
15794	9.570374	-0.206608	2.317590	0.004445	-0.040020	0.036391	1.000000	0.000017	0.000013	0.000018	-4.117549	-76.297780	-3.645354
15795	9.565232	-0.174022	2.327583	-0.001989	-0.006280	0.033202	1.000000	0.000027	0.000028	0.000013	-4.116625	-76.296533	-3.646632
15796	9.565114	-0.174133	2.328060	-0.002357	-0.006389	0.033202	1.000000	0.000038	0.000020	0.000014	-4.115015	-76.296199	-3.647421
15797	9.565014	-0.174208	2.328466	-0.002733	-0.006486	0.033202	1.000000	0.000030	0.000021	0.000010	-4.112665	-76.295866	-3.648969
15798	9.581304	-0.185928	2.314940	0.012603	-0.020191	0.046032	1.000000	0.000028	0.000017	0.000016	-4.113269	-76.295938	-3.648709
15799	9.562508	-0.166451	2.362877	-0.035189	0.005779	0.038769	1.000000	0.000042	0.000039	0.000018	-4.112865	-76.293480	-3.647150
15800	9.578285	-0.161404	2.292084	0.037520	0.000981	0.037279	1.000000	0.000026	0.000014	0.000003	-4.107706	-76.293928	-3.653090
15801	9.578724	-0.178253	2.349652	-0.020248	-0.008019	0.051597	1.000000	0.000026	0.000000	0.000025	-4.113619	-76.295946	-3.647315
15802	9.564512	-0.174867	2.330478	-0.004605	-0.007000	0.033201	1.000000	0.000036	0.000044	0.000008	-4.108532	-76.292926	-3.651931
15803	9.564401	-0.174859	2.330932	-0.004981	-0.007097	0.033201	1.000000	0.000027	0.000002	0.000006	-4.105391	-76.294769	-3.654755
15804	9.592095	-0.165441	2.312873	0.020003	-0.000565	0.055679	1.000000	0.000025	0.000012	0.000022	-4.109235	-76.295298	-3.651442
15805	9.564280	-0.175192	2.331404	-0.005714	-0.007304	0.033200	1.000000	0.000030	0.000021	0.000010	-4.106882	-76.294897	-3.653212
15806	9.577841	-0.162151	2.293886	0.035285	0.000349	0.037287	1.000000	0.000031	0.000009	0.000013	-4.105986	-76.295854	-3.654094
15807	9.575500	-0.154262	2.327604	0.003172	0.012740	0.042847	1.000000	0.000009	0.000014	0.000014	-4.108244	-76.296504	-3.653798
15808	9.575435	-0.154387	2.327863	0.002804	0.012630	0.042847	1.000000	0.000042	0.000013	0.000011	-4.105133	-76.297055	-3.655728
15809	9.552666	-0.196887	2.336762	-0.016876	-0.027945	0.023551	1.000000	0.000017	0.000013	0.000018	-4.108274	-76.297492	-3.654723
15810	9.580321	-0.187549	2.318874	0.008104	-0.021424	0.046034	1.000000	0.000054	0.000019	0.000023	-4.108715	-76.297260	-3.651502
15811	9.566136	-0.184157	2.299618	0.023717	-0.020406	0.027644	1.000000	0.000020	0.000017	0.000012	-4.108423	-76.297500	-3.651609
15812	9.563771	-0.176131	2.333420	-0.008357	-0.008025	0.033198	1.000000	0.000025	0.000014	0.000003	-4.103260	-76.297948	-3.657553
15813	9.605504	-0.170182	2.335246	0.000597	-0.002620	0.074073	1.000000	0.000035	0.000028	0.000017	-4.103351	-76.296762	-3.656450
15814	9.565845	-0.184572	2.300793	0.022605	-0.020730	0.027646	1.000000	0.000038	0.000018	0.000033	-4.110746	-76.296506	-3.647987
15815	9.579822	-0.188437	2.320864	0.006196	-0.021937	0.046034	1.000000	0.000035	0.000028	0.000017	-4.111113	-76.295400	-3.646547
15816	9.563300	-0.176938	2.335291	-0.009854	-0.008432	0.033196	1.000000	0.000019	0.000029	0.000009	-4.108951	-76.294077	-3.650212
15817	9.568214	-0.210032	2.326182	-0.004229	-0.042372	0.036381	1.000000	0.000020	0.000015	0.000031	-4.117945	-76.294291	-3.641573
15818	9.549019	-0.173906	2.316417	0.005416	-0.007517	0.014810	1.000000	0.000052	0.000016	0.000009	-4.112622	-76.294437	-3.644552
15819	9.581708	-0.197207	2.289017	0.036397	-0.034847	0.040489	1.000000	0.000020	0.000017	0.000012	-4.112598	-76.294478	-3.646483
15820	9.546574	-0.165985	2.350499	-0.027022	0.004788	0.020354	1.000000	0.000031	0.000009	0.000013	-4.111704	-76.295435	-3.647364
15821	9.595657	-0.200964	2.309201	0.019634	-0.036166	0.058874	1.000000	0.000030	0.000021	0.000010	-4.109483	-76.295029	-3.649684
15822	9.576456	-0.164736	2.299479	0.029292	-0.001314	0.037307	1.000000	0.000028	0.000017	0.000016	-4.110087	-76.295100	-3.649428
15823	9.579104	-0.189512	2.323741	0.003220	-0.022751	0.046034	1.000000	0.000025	0.000014	0.000003	-4.105258	-76.295564	-3.655515
15824	9.573988	-0.156643	2.333656	-0.003144	0.010992	0.042849	1.000000	0.000032	0.000025	0.000004	-4.099381	-76.294721	-3.661369
15825	9.578901	-0.189460	2.324581	0.002473	-0.022958	0.046033	1.000000	0.000038	0.000020	0.000014	-4.098051	-76.294433	-3.661072
15826	9.562406	-0.178037	2.338865	-0.013563	-0.009441	0.033191	1.000000	0.000040	0.000023	0.000027	-4.102206	-76.293719	-3.655666
15827	9.592783	-0.193334	2.345004	-0.014306	-0.024267	0.064413	1.000000	0.000017	0.000015	-0.000001	-4.096442	-76.294172	-3.662624
15828	9.576310	-0.181691	2.359208	-0.030340	-0.010747	0.051569	1.000000	0.000038	0.000020	0.000014	-4.094832	-76.293836	-3.663417
15829	9.578120	-0.173334	2.268638	0.058393	-0.014567	0.031780	1.000000	0.000028	0.000017	0.000016	-4.095623	-76.293908	-3.663580
15830	9.589801	-0.168885	2.322119	0.010296	-0.003257	0.055693	1.000000	0.000030	0.000021	0.000010	-4.092986	-76.293521	-3.666380
15831	9.578314	-0.190162	2.326939	0.000275	-0.023587	0.046032	1.000000	0.000035	0.000028	0.000017	-4.093012	-76.292136	-3.666005
15832	9.547774	-0.175084	2.321452	0.000282	-0.008960	0.014810	1.000000	0.000035	0.000001	0.000010	-4.090620	-76.293978	-3.668026
15833	9.561770	-0.178677	2.341412	-0.016113	-0.010163	0.033186	1.000000	0.000045	0.000031	0.000015	-4.088491	-76.292302	-3.668887
15834	9.547592	-0.175198	2.322192	-0.000444	-0.009171	0.014810	1.000000	0.000015	0.000010	0.000005	-4.085543	-76.293155	-3.673784
15835	9.578001	-0.190407	2.328210	-0.001202	-0.024011	0.046031	1.000000	0.000042	0.000013	0.000011	-4.082573	-76.293744	-3.674880
15836	9.561538	-0.178858	2.342348	-0.017224	-0.010482	0.033184	1.000000	0.000028	0.000017	0.000016	-4.083175	-76.293813	-3.674627
15837	9.556430	-0.146181	2.352207	-0.023549	0.023288	0.030001	1.000000	0.000038	0.000020	0.000014	-4.082058	-76.293446	-3.675368
15838	9.580060	-0.198912	2.295757	0.029385	-0.036864	0.040505	1.000000	0.000028	0.000017	0.000016	-4.082661	-76.293514	-3.675115
15839	9.577624	-0.190878	2.329719	-0.002662	-0.024424	0.046030	1.000000	0.000029	0.000033	0.000007	-4.078438	-76.291716	-3.678476
15840	9.591217	-0.178064	2.292292	0.038346	-0.016864	0.050173	1.000000	0.000023	0.000008	0.000028	-4.085520	-76.292698	-3.672114
15841	9.588834	-0.170081	2.326024	0.006272	-0.004402	0.055696	1.000000	0.000036	0.000018	0.000001	-4.078714	-76.292851	-3.678486
15842	9.574689	-0.166617	2.306690	0.021946	-0.003418	0.037326	1.000000	0.000017	0.000013	0.000018	-4.081530	-76.293325	-3.677186
15843	9.560925	-0.179766	2.344777	-0.019807	-0.011175	0.033178	1.000000	0.000034	0.000013	0.000007	-4.077740	-76.293859	-3.680858
15844	9.593624	-0.203128	2.317443	0.011108	-0.038579	0.058878	1.000000	0.000038	0.000020	0.000014	-4.076130	-76.293521	-3.681654
15845	9.558054	-0.155380	2.321505	0.005225	0.009924	0.024477	1.000000	0.000030	0.000019	0.000029	-4.082818	-76.293051	-3.677042
15846	9.577042	-0.192024	2.332017	-0.005246	-0.025138	0.046027	1.000000	0.000028	0.000017	0.000016	-4.083420	-76.293119	-3.676790
15847	9.576986	-0.192071	2.332245	-0.005623	-0.025226	0.046027	1.000000	0.000037	0.000006	0.000004	-4.078291	-76.294550	-3.681297
15848	9.576856	-0.191936	2.332787	-0.005992	-0.025335	0.046026	1.000000	0.000030	0.000049	-0.000002	-4.068924	-76.291018	-3.690993
15849	9.588082	-0.170943	2.329058	0.003328	-0.005225	0.055697	1.000000	0.000020	0.000015	0.000031	-4.077729	-76.291176	-3.681980
15850	9.548482	-0.185358	2.294479	0.025356	-0.023371	0.009294	1.000000	0.000038	0.000020	0.000014	-4.076119	-76.290837	-3.682777
15851	9.587920	-0.171368	2.329696	0.002570	-0.005431	0.055697	1.000000	0.000039	0.000008	0.000017	-4.076542	-76.291960	-3.680476
15852	9.562392	-0.189225	2.314727	0.008550	-0.024664	0.027660	1.000000	0.000032	0.000023	0.000023	-4.079667	-76.291192	-3.677084
15853	9.578683	-0.201116	2.301304	0.023797	-0.038418	0.040514	1.000000	0.000020	0.000017	0.000012	-4.079578	-76.291289	-3.679187
15854	9.559876	-0.181465	2.348922	-0.023880	-0.012292	0.033168	1.000000	0.000036	0.000016	0.000020	-4.081208	-76.291406	-3.676930
15855	9.589888	-0.180226	2.297678	0.032763	-0.018427	0.050190	1.000000	0.000032	0.000025	0.000004	-4.075516	-76.290548	-3.683558
15856	9.584838	-0.147511	2.307316	0.026476	0.015328	0.047011	1.000000	0.000030	-0.000007	0.000022	-4.079610	-76.293300	-3.679467
15857	9.589786	-0.180690	2.298068	0.032043	-0.018638	0.050192	1.000000	0.000010	0.000028	0.000024	-4.085768	-76.291894	-3.676225
15858	9.587341	-0.172659	2.331982	-0.000003	-0.006164	0.055697	1.000000	0.000036	0.000018	0.000001	-4.078393	-76.291934	-3.683220
15859	9.561811	-0.190333	2.317034	0.005957	-0.025384	0.027660	1.000000	0.000036	0.000016	0.000020	-4.080306	-76.292162	-3.680150
15860	9.587159	-0.172957	2.332705	-0.000758	-0.006370	0.055697	1.000000	0.000032	0.000023	0.000023	-4.083430	-76.291393	-3.676761
15861	9.563950	-0.199002	2.284352	0.036889	-0.038187	0.022159	1.000000	0.000028	0.000017	0.000016	-4.084237	-76.291491	-3.676151
15862	9.573244	-0.186367	2.371254	-0.042887	-0.014187	0.051518	1.000000	0.000036	0.000016	0.000020	-4.085866	-76.291608	-3.673895
15863	9.561465	-0.191176	2.318394	0.004494	-0.025800	0.027659	1.000000	0.000023	0.000010	0.000009	-4.084312	-76.292408	-3.676734
15864	9.586820	-0.173660	2.334047	-0.002220	-0.006785	0.055696	1.000000	0.000035	0.000028	0.000017	-4.084194	-76.291182	-3.676401
15865	9.577612	-0.203188	2.305575	0.019351	-0.039685	0.040519	1.000000	0.000031	0.000035	0.000020	-4.085705	-76.289173	-3.674049
15866	9.570144	-0.162218	2.348992	-0.018586	0.006676	0.042836	1.000000	0.000036	0.000018	0.000001	-4.078331	-76.289213	-3.681043
